Folder: GaN-AlGaN/adquisiciones/uv vis cef3 14-6

Note: adquisiciones/uv vis cef3 14-6/Info.txt
Task ID = 292
Method GUID = {2486556D-5BAE-416C-8ABE-2A654F962187}

File: mixclean bis.Sample.Raw.csv
nm, A
700, 0.700002
698, 0.703101
696, 0.706191
694, 0.709402
692, 0.712531
690, 0.715794
688, 0.719025
686, 0.722354
684, 0.725706
682, 0.729509
680, 0.732903
678, 0.736308
676, 0.739672
674, 0.743137
672, 0.746563
670, 0.749958
668, 0.753328
666, 0.756705
664, 0.760201
662, 0.763758
660, 0.767432
658, 0.770986
656, 0.774647
654, 0.778321
652, 0.781978
650, 0.785844
648, 0.789674
646, 0.793448
644, 0.797391
642, 0.801318
640, 0.805278
638, 0.809257
636, 0.813223
634, 0.817271
632, 0.821311
630, 0.825503
628, 0.829608
626, 0.833667
624, 0.837954
622, 0.842247
620, 0.846589
618, 0.851014
616, 0.855426
614, 0.859818
612, 0.864285
610, 0.868695
608, 0.873375
606, 0.877917
604, 0.882531
602, 0.887219
600, 0.891928
598, 0.896776
596, 0.901503
594, 0.906381
592, 0.911276
590, 0.916202
588, 0.921227
586, 0.926199
584, 0.931326
582, 0.936457
580, 0.941531
578, 0.946639
576, 0.951847
574, 0.957138
572, 0.962489
570, 0.967827
568, 0.973378
566, 0.978702
564, 0.984124
562, 0.989547
560, 0.995334
558, 1.001266
556, 1.007330
554, 1.013091
552, 1.018931
550, 1.024696
548, 1.030741
546, 1.036664
544, 1.042734
542, 1.048944
540, 1.055139
538, 1.061250
536, 1.067542
534, 1.073939
532, 1.080168
530, 1.086735
528, 1.093365
526, 1.099861
524, 1.106536
522, 1.113153
520, 1.119890
518, 1.126837
516, 1.133638
514, 1.140763
512, 1.147774
510, 1.154922
508, 1.161999
506, 1.169237
504, 1.176485
502, 1.183854
500, 1.191290
498, 1.198906
496, 1.206369
494, 1.214024
492, 1.221769
490, 1.229367
488, 1.237526
486, 1.245425
484, 1.253494
482, 1.261457
480, 1.269650
478, 1.277617
476, 1.285863
474, 1.294008
472, 1.302607
470, 1.310777
468, 1.319339
466, 1.327849
464, 1.336184
462, 1.344585
460, 1.353475
458, 1.362147
456, 1.371199
454, 1.379640
452, 1.388656
450, 1.397697
448, 1.407023
446, 1.416024
444, 1.425353
442, 1.434893
440, 1.444270
438, 1.453514
436, 1.463391
434, 1.472632
432, 1.482689
430, 1.492755
428, 1.502487
426, 1.512584
424, 1.523117
422, 1.533218
420, 1.541761
418, 1.552028
416, 1.562847
414, 1.572933
412, 1.584171
410, 1.594826
408, 1.606082
406, 1.616988
404, 1.627967
402, 1.639639
400, 1.650839
398, 1.662950
396, 1.674644
394, 1.687208
392, 1.700292
390, 1.712541
388, 1.726382
386, 1.739307
384, 1.750689
382, 1.751325
380, 1.767776
378, 1.790539
376, 1.798257
374, 1.836491
372, 1.851404
370, 1.872004
368, 1.881445
366, 1.893831
364, 1.918102
362, 1.935268
360, 1.950402
358, 1.968993
356, 1.983472
354, 2.005683
352, 2.029748
350, 2.033730
348, 2.041179
346, 2.051419
344, 2.060319
342, 2.085758
340, 2.104293
338, 2.157260
336, 2.182042
334, 2.214535
332, 2.243343
330, 2.222619
328, 2.236581
326, 2.345044
324, 2.375893
322, 2.410084
320, 2.435722
318, 2.471485
316, 2.516109
314, 2.558142
312, 2.627378
310, 2.636433
308, 2.705390
306, 2.722823
304, 2.787372
302, 2.866107
300, 2.950923
298, 3.075711
296, 3.215780
294, 3.446499
292, 3.616442
290, 3.616106
288, 3.691427
286, 3.651779
284, 3.758045
282, 3.550663
280, 3.711976
278, 3.782612
276, 3.734311
274, 3.899378
272, 4.110430
270, 3.972253
268, 3.934679
266, 4.059950
264, 4.060219
262, 3.935205
260, 4.014693
258, 4.014663
256, 4.060547
254, 4.111674
252, 4.169742
250, 4.060354
248, 4.315731
246, 4.169867
244, 4.170153
242, 4.170341
240, 4.170681
238, 4.414079
236, 4.238305
234, 4.317804
232, 4.239016
230, 4.172774
228, 4.115881
226, 4.321507
224, 4.177343
222, 4.246039
220, 4.325914
218, 4.070649
216, 4.121892
214, 4.180146
212, 4.326835
210, 4.072099
208, 4.124313
206, 4.073755
204, 4.184614
202, 3.989903
200, 4.255156

File: mixfeo bis.Sample.Raw.csv
nm, A
700, 0.702561
698, 0.705582
696, 0.708611
694, 0.711659
692, 0.714805
690, 0.717922
688, 0.720985
686, 0.724288
684, 0.727509
682, 0.730608
680, 0.734032
678, 0.737318
676, 0.740842
674, 0.743945
672, 0.747377
670, 0.750624
668, 0.753842
666, 0.757269
664, 0.760542
662, 0.764034
660, 0.767524
658, 0.771033
656, 0.774506
654, 0.778060
652, 0.781786
650, 0.785554
648, 0.789260
646, 0.793005
644, 0.796795
642, 0.800642
640, 0.804495
638, 0.808313
636, 0.812218
634, 0.816153
632, 0.820130
630, 0.824258
628, 0.828271
626, 0.832344
624, 0.836536
622, 0.840705
620, 0.845003
618, 0.849413
616, 0.853695
614, 0.858069
612, 0.862517
610, 0.866939
608, 0.871452
606, 0.876003
604, 0.880627
602, 0.885203
600, 0.889920
598, 0.894651
596, 0.899196
594, 0.903823
592, 0.908621
590, 0.913250
588, 0.917770
586, 0.922357
584, 0.927223
582, 0.932397
580, 0.937483
578, 0.942568
576, 0.947972
574, 0.953393
572, 0.958842
570, 0.964282
568, 0.969558
566, 0.975141
564, 0.980480
562, 0.986093
560, 0.991754
558, 0.998291
556, 1.004400
554, 1.010081
552, 1.015797
550, 1.021694
548, 1.027698
546, 1.033758
544, 1.039833
542, 1.045957
540, 1.052155
538, 1.058363
536, 1.064755
534, 1.071207
532, 1.077687
530, 1.084315
528, 1.091007
526, 1.097722
524, 1.104467
522, 1.111210
520, 1.118129
518, 1.125156
516, 1.132206
514, 1.139363
512, 1.146522
510, 1.153880
508, 1.161293
506, 1.168639
504, 1.176241
502, 1.183916
500, 1.191605
498, 1.199355
496, 1.207349
494, 1.215220
492, 1.223123
490, 1.231229
488, 1.239846
486, 1.248147
484, 1.256635
482, 1.265031
480, 1.273599
478, 1.282421
476, 1.290923
474, 1.299818
472, 1.308791
470, 1.317934
468, 1.327081
466, 1.336021
464, 1.345431
462, 1.355043
460, 1.364734
458, 1.374425
456, 1.384844
454, 1.394690
452, 1.404876
450, 1.415563
448, 1.425965
446, 1.436750
444, 1.447966
442, 1.459259
440, 1.470447
438, 1.482213
436, 1.494375
434, 1.506621
432, 1.519061
430, 1.531893
428, 1.545785
426, 1.559538
424, 1.573486
422, 1.588405
420, 1.601964
418, 1.617215
416, 1.633042
414, 1.649556
412, 1.666833
410, 1.684358
408, 1.703245
406, 1.721975
404, 1.741698
402, 1.762639
400, 1.784587
398, 1.808348
396, 1.832092
394, 1.858348
392, 1.885594
390, 1.914382
388, 1.944980
386, 1.974899
384, 2.018599
382, 2.038843
380, 2.068806
378, 2.078709
376, 2.106666
374, 2.155011
372, 2.204625
370, 2.227620
368, 2.265616
366, 2.319800
364, 2.341313
362, 2.318005
360, 2.382623
358, 2.459539
356, 2.519966
354, 2.483652
352, 2.506869
350, 2.565299
348, 2.554332
346, 2.490988
344, 2.695532
342, 2.622707
340, 2.602845
338, 2.749115
336, 2.802474
334, 2.865675
332, 2.760820
330, 2.741981
328, 2.667945
326, 3.122266
324, 3.151059
322, 3.169212
320, 3.281967
318, 3.306740
316, 3.351662
314, 3.391259
312, 3.434985
310, 3.423767
308, 3.470952
306, 3.471011
304, 3.510109
302, 3.714296
300, 3.784932
298, 3.759957
296, 3.839029
294, 3.868573
292, 3.900439
290, 3.867918
288, 3.972253
286, 3.899564
284, 3.782869
282, 3.782612
280, 4.058763
278, 3.808941
276, 4.058822
274, 3.934141
272, 4.110430
270, 3.972253
268, 3.934679
266, 3.935012
264, 4.014462
262, 4.060144
260, 4.412633
258, 4.014663
256, 4.111699
254, 4.169666
252, 4.315870
250, 4.412536
248, 4.412641
246, 4.315996
244, 4.413191
242, 4.112349
240, 4.413719
238, 4.317169
236, 4.414397
234, 4.238623
232, 4.239016
230, 4.415812
228, 4.173873
226, 4.175379
224, 4.119351
222, 4.325220
220, 4.246732
218, 4.325922
216, 4.179884
214, 4.247093
212, 4.326835
210, 4.123251
208, 4.425343
206, 4.329028
204, 4.184614
202, 4.128205
200, 4.079065