Folder: GaN-AlGaN/adquisiciones/uvvis naftaleno

File: PS1.Sample.asc
PE UV       SUBTECH     SPECTRUM    ASCII       PEDS        4.00
   -1
PS1.Sample.asc
24/04/30
10:22:34.00
24/04/30
10:22:34.00
Analyst

200
1
Lambda 25
501S09011401
PerkinElmer UV WinLab 6.0.2.0723 / Lambda25 1.27

480
2
1
0
0
Both on
1
1
1
None
0
0
0
0

0
0
0
0
0

0

0
326
0

0

0
0
0

0

0

0
0
0
0
0

0
0
#HDR
-1
-1
#GR
nm
A
1.0
0.0
700
-1.000000
501
8
4.255345
0.243754
#DATA
700,0.243754
698,0.244429
696,0.245231
694,0.245970
692,0.246748
690,0.247494
688,0.248262
686,0.249072
684,0.249846
682,0.250828
680,0.251585
678,0.252480
676,0.253272
674,0.254056
672,0.254927
670,0.255624
668,0.256364
666,0.257226
664,0.258047
662,0.258922
660,0.259528
658,0.260453
656,0.261193
654,0.262151
652,0.263124
650,0.264052
648,0.264951
646,0.265852
644,0.266847
642,0.267942
640,0.268938
638,0.269768
636,0.270904
634,0.271823
632,0.272846
630,0.273843
628,0.274951
626,0.275928
624,0.277057
622,0.278048
620,0.279189
618,0.280266
616,0.281480
614,0.282559
612,0.283752
610,0.284838
608,0.286067
606,0.287227
604,0.288423
602,0.289661
600,0.290891
598,0.292057
596,0.293276
594,0.294454
592,0.295715
590,0.297022
588,0.298293
586,0.299590
584,0.300949
582,0.302159
580,0.303456
578,0.305004
576,0.306352
574,0.307867
572,0.309294
570,0.310781
568,0.312196
566,0.313712
564,0.315256
562,0.316699
560,0.318244
558,0.320020
556,0.321946
554,0.323494
552,0.325133
550,0.326759
548,0.328472
546,0.330109
544,0.331984
542,0.333786
540,0.335550
538,0.337347
536,0.339144
534,0.340968
532,0.342832
530,0.344778
528,0.346736
526,0.348655
524,0.350644
522,0.352609
520,0.354574
518,0.356784
516,0.358859
514,0.361056
512,0.363217
510,0.365436
508,0.367645
506,0.370001
504,0.372268
502,0.374667
500,0.377053
498,0.379521
496,0.382046
494,0.384467
492,0.386949
490,0.389662
488,0.392239
486,0.394930
484,0.397558
482,0.400217
480,0.403028
478,0.405906
476,0.408801
474,0.411691
472,0.414708
470,0.417731
468,0.420944
466,0.424029
464,0.427225
462,0.430503
460,0.433807
458,0.437090
456,0.440535
454,0.444004
452,0.447511
450,0.451223
448,0.454855
446,0.458651
444,0.462424
442,0.466280
440,0.470262
438,0.474255
436,0.478333
434,0.482600
432,0.486957
430,0.491176
428,0.495671
426,0.500225
424,0.504866
422,0.509408
420,0.513819
418,0.518477
416,0.523651
414,0.528760
412,0.533907
410,0.539167
408,0.544675
406,0.550179
404,0.555692
402,0.561476
400,0.567229
398,0.573394
396,0.579754
394,0.586077
392,0.592568
390,0.599056
388,0.606084
386,0.612978
384,0.620759
382,0.628146
380,0.636823
378,0.642656
376,0.650003
374,0.659272
372,0.667278
370,0.676007
368,0.685129
366,0.694925
364,0.704734
362,0.714222
360,0.724242
358,0.734101
356,0.744027
354,0.754077
352,0.765417
350,0.777950
348,0.789014
346,0.801761
344,0.813112
342,0.825727
340,0.838778
338,0.854621
336,0.868432
334,0.882802
332,0.897249
330,0.914228
328,0.928674
326,0.939449
324,0.955396
322,0.972140
320,0.989791
318,1.008560
316,1.027413
314,1.046665
312,1.066021
310,1.086771
308,1.109655
306,1.134385
304,1.163404
302,1.197774
300,1.241696
298,1.303237
296,1.388162
294,1.484283
292,1.588759
290,1.695706
288,1.812064
286,1.943364
284,2.129127
282,2.374643
280,2.806201
278,3.521792
276,3.690993
274,3.691107
272,3.837475
270,3.734935
268,3.783542
266,3.838198
264,3.900518
262,3.900602
260,4.060442
258,3.935553
256,3.900863
254,4.111783
252,4.111632
250,4.060404
248,4.236625
246,4.169876
244,4.237125
242,4.112492
240,4.061687
238,4.171133
236,4.171518
234,4.171877
232,4.172453
230,4.173282
228,4.174500
226,4.176166
224,4.023228
222,4.246281
220,4.121724
218,4.070658
216,4.246958
214,4.122286
212,4.026120
210,4.123537
208,4.124578
206,4.125241
204,4.184910
202,4.128456
200,4.255345

File: PS2.Sample.asc
PE UV       SUBTECH     SPECTRUM    ASCII       PEDS        4.00
   -1
PS2.Sample.asc
24/04/30
10:24:19.00
24/04/30
10:24:19.00
Analyst

200
1
Lambda 25
501S09011401
PerkinElmer UV WinLab 6.0.2.0723 / Lambda25 1.27

480
2
1
0
0
Both on
1
1
1
None
0
0
0
0

0
0
0
0
0

0

0
326
0

0

0
0
0

0

0

0
0
0
0
0

0
0
#HDR
-1
-1
#GR
nm
A
1.0
0.0
700
-1.000000
501
8
10
1.835726
#DATA
700	1.835726
698	1.837045
696	1.838191
694	1.839824
692	1.841516
690	1.842915
688	1.844862
686	1.846012
684	1.848234
682	1.849667
680	1.851731
678	1.852943
676	1.854915
674	1.856080
672	1.857711
670	1.859179
668	1.860145
666	1.861699
664	1.862735
662	1.864062
660	1.865645
658	1.867015
656	1.868283
654	1.870171
652	1.871585
650	1.872905
648	1.874895
646	1.876486
644	1.878191
642	1.879919
640	1.881619
638	1.883283
636	1.885073
634	1.886495
632	1.888299
630	1.890084
628	1.891865
626	1.893677
624	1.895549
622	1.897326
620	1.899182
618	1.900987
616	1.902903
614	1.905375
612	1.907291
610	1.908815
608	1.911038
606	1.912992
604	1.914545
602	1.916089
600	1.917923
598	1.919683
596	1.921677
594	1.923153
592	1.925118
590	1.926979
588	1.929022
586	1.930900
584	1.933106
582	1.935360
580	1.937691
578	1.939885
576	1.941919
574	1.944226
572	1.946285
570	1.948587
568	1.950899
566	1.953280
564	1.955429
562	1.957610
560	1.960220
558	1.963311
556	1.965903
554	1.968296
552	1.970769
550	1.973653
548	1.975509
546	1.977683
544	1.980658
542	1.983137
540	1.985879
538	1.988297
536	1.991453
534	1.993824
532	1.995830
530	1.999899
528	2.002745
526	2.005598
524	2.008109
522	2.010982
520	2.014330
518	2.016928
516	2.020755
514	2.022474
512	2.026293
510	2.028901
508	2.031949
506	2.035499
504	2.038560
502	2.042144
500	2.044792
498	2.048460
496	2.051559
494	2.054807
492	2.058434
490	2.061222
488	2.065360
486	2.069040
484	2.073091
482	2.076773
480	2.080845
478	2.085006
476	2.088103
474	2.092122
472	2.096151
470	2.100301
468	2.104968
466	2.109194
464	2.113521
462	2.117908
460	2.122354
458	2.125848
456	2.131071
454	2.135244
452	2.140548
450	2.144250
448	2.150038
446	2.154030
444	2.161057
442	2.162645
440	2.170536
438	2.174021
436	2.179077
434	2.184307
432	2.189146
430	2.195427
428	2.200603
426	2.205827
424	2.213844
422	2.219393
420	2.224268
418	2.229863
416	2.236396
414	2.243013
412	2.248254
410	2.255750
408	2.260444
406	2.268177
404	2.275318
402	2.281841
400	2.288308
398	2.297326
396	2.304888
394	2.314285
392	2.324684
390	2.337976
388	2.350022
386	2.362180
384	2.424352
382	2.517395
380	2.537902
378	2.432603
376	2.448265
374	2.466483
372	2.507334
370	2.476182
368	2.464680
366	2.523349
364	2.538921
362	2.541839
360	2.579980
358	2.574861
356	2.637285
354	2.584143
352	2.622138
350	2.589454
348	2.647800
346	2.665164
344	2.686092
342	2.648195
340	2.843860
338	3.037164
336	3.247393
334	3.834463
332	3.184081
330	2.810845
328	3.779176
326	2.924288
324	2.964983
322	2.984977
320	3.040985
318	3.069815
316	3.090040
314	3.111544
312	3.133963
310	3.176062
308	3.236814
306	3.222750
304	3.333972
302	3.510256
300	3.617323
298	3.600240
296	3.973623
294	4.169641
292	10
290	4.315008
288	4.235583
286	4.712372
284	10
282	4.234981
280	5.013027
278	10
276	4.411152
274	4.314356
272	4.235415
270	4.712658
268	4.712961
266	4.713259
264	4.713432
262	5.014546
260	10
258	4.236583
256	10
254	10
252	10
250	4.537525
248	5.014777
246	10
244	4.538155
242	5.015582
240	5.015929
238	5.016231
236	5.016616
234	4.539854
232	4.415491
230	4.717350
228	10
226	4.322294
224	5.023228
222	10
220	5.024814
218	10
216	4.724079
214	4.724346
212	4.725090
210	4.424567
208	4.726638
206	10
204	10
202	4.554425
200	4.732466

File: PS+NF5.Sample.asc
PE UV       SUBTECH     SPECTRUM    ASCII       PEDS        4.00
   -1
PS+NF5.Sample.asc
24/04/30
10:26:32.00
24/04/30
10:26:32.00
Analyst

200
1
Lambda 25
501S09011401
PerkinElmer UV WinLab 6.0.2.0723 / Lambda25 1.27

480
2
1
0
0
Both on
1
1
1
None
0
0
0
0

0
0
0
0
0

0

0
326
0

0

0
0
0

0

0

0
0
0
0
0

0
0
#HDR
-1
-1
#GR
nm
A
1.0
0.0
700
-1.000000
501
8
4.124578
0.265368
#DATA
700	0.265368
698	0.266433
696	0.267716
694	0.268909
692	0.270172
690	0.271427
688	0.272687
686	0.274075
684	0.275400
682	0.276945
680	0.278364
678	0.279778
676	0.281144
674	0.282480
672	0.283809
670	0.285064
668	0.286335
666	0.287698
664	0.289041
662	0.290536
660	0.291889
658	0.293380
656	0.294786
654	0.296264
652	0.297856
650	0.299229
648	0.300907
646	0.302315
644	0.303964
642	0.305523
640	0.307230
638	0.308787
636	0.310503
634	0.312130
632	0.313876
630	0.315527
628	0.317289
626	0.319066
624	0.320919
622	0.322618
620	0.324488
618	0.326341
616	0.328339
614	0.330196
612	0.332261
610	0.334170
608	0.336171
606	0.338199
604	0.340197
602	0.342249
600	0.344366
598	0.346437
596	0.348581
594	0.350803
592	0.353021
590	0.355274
588	0.357522
586	0.359818
584	0.362353
582	0.364681
580	0.366963
578	0.369471
576	0.371979
574	0.374468
572	0.376974
570	0.379573
568	0.382048
566	0.384563
564	0.387297
562	0.389939
560	0.392744
558	0.395545
556	0.398405
554	0.401211
552	0.404061
550	0.406924
548	0.409902
546	0.412896
544	0.415998
542	0.419146
540	0.422302
538	0.425576
536	0.428806
534	0.432107
532	0.435436
530	0.438953
528	0.442455
526	0.446041
524	0.449595
522	0.453155
520	0.456910
518	0.460778
516	0.464689
514	0.468600
512	0.472526
510	0.476594
508	0.480823
506	0.484948
504	0.489126
502	0.493538
500	0.498032
498	0.502554
496	0.507112
494	0.511780
492	0.516495
490	0.521449
488	0.526503
486	0.531511
484	0.536479
482	0.541854
480	0.547065
478	0.552494
476	0.557963
474	0.563426
472	0.569208
470	0.574849
468	0.580788
466	0.586737
464	0.592816
462	0.598970
460	0.605229
458	0.611771
456	0.618384
454	0.625234
452	0.632097
450	0.639029
448	0.646094
446	0.653347
444	0.660834
442	0.668332
440	0.676303
438	0.684106
436	0.692130
434	0.700322
432	0.708634
430	0.717127
428	0.725901
426	0.735026
424	0.744046
422	0.753469
420	0.761387
418	0.770910
416	0.780641
414	0.790836
412	0.801202
410	0.811645
408	0.822415
406	0.833294
404	0.844304
402	0.855632
400	0.867135
398	0.879082
396	0.891376
394	0.903876
392	0.916416
390	0.929317
388	0.942639
386	0.955923
384	0.973609
382	0.998674
380	1.011938
378	1.020197
376	1.039595
374	1.054295
372	1.073190
370	1.090787
368	1.108988
366	1.124238
364	1.143187
362	1.164613
360	1.184593
358	1.203994
356	1.225327
354	1.245391
352	1.265022
350	1.293102
348	1.308623
346	1.329972
344	1.354321
342	1.378541
340	1.403293
338	1.438233
336	1.466505
334	1.506355
332	1.541218
330	1.571118
328	1.625092
326	1.750320
324	2.000522
322	2.460478
320	2.553215
318	3.298295
316	3.599346
314	3.634423
312	3.736023
310	3.736157
308	3.736212
306	3.653414
304	3.635002
302	3.635195
300	3.736510
298	3.672790
296	3.617076
294	3.672316
292	3.616354
290	3.671556
288	3.691515
286	3.691183
284	3.615416
282	3.536011
280	3.690808
278	3.670731
276	3.615272
274	3.598353
272	3.651838
270	3.691469
268	3.671568
266	3.652562
264	3.692242
262	3.759273
260	3.759412
258	3.735981
256	3.868678
254	3.810753
252	3.810602
250	3.784198
248	3.838685
246	3.935793
244	3.936095
242	3.901639
240	3.901986
238	3.870103
236	3.937434
234	3.870847
232	3.903607
230	3.872252
228	3.873470
226	3.790815
224	3.944047
222	3.910489
220	3.910871
218	3.945719
216	3.983716
214	3.946194
212	3.984728
210	3.850536
208	4.124578
206	3.986939
204	3.916065
202	3.801097
200	3.954315

File: PS+NF10.Sample.asc
PE UV       SUBTECH     SPECTRUM    ASCII       PEDS        4.00
   -1
PS+NF10.Sample.asc
24/04/30
10:28:52.00
24/04/30
10:28:52.00
Analyst

200
1
Lambda 25
501S09011401
PerkinElmer UV WinLab 6.0.2.0723 / Lambda25 1.27

480
2
1
0
0
Both on
1
1
1
None
0
0
0
0

0
0
0
0
0

0

0
326
0

0

0
0
0

0

0

0
0
0
0
0

0
0
#HDR
-1
-1
#GR
nm
A
1.0
0.0
700
-1.000000
501
8
3.913806
0.248061
#DATA
700	0.248061
698	0.249191
696	0.250332
694	0.251419
692	0.252673
690	0.253961
688	0.255125
686	0.256428
684	0.257761
682	0.259189
680	0.260487
678	0.261929
676	0.263186
674	0.264421
672	0.265780
670	0.266946
668	0.268127
666	0.269443
664	0.270792
662	0.272110
660	0.273400
658	0.274818
656	0.276007
654	0.277484
652	0.278930
650	0.280373
648	0.281932
646	0.283271
644	0.284914
642	0.286449
640	0.288016
638	0.289530
636	0.291170
634	0.292760
632	0.294382
630	0.296013
628	0.297647
626	0.299335
624	0.301185
622	0.302907
620	0.304677
618	0.306451
616	0.308353
614	0.310244
612	0.312134
610	0.314010
608	0.315968
606	0.317937
604	0.319857
602	0.321836
600	0.323865
598	0.325898
596	0.327928
594	0.329980
592	0.332017
590	0.334184
588	0.336390
586	0.338554
584	0.340777
582	0.343323
580	0.345539
578	0.347933
576	0.350334
574	0.352868
572	0.355193
570	0.357773
568	0.360256
566	0.362770
564	0.365330
562	0.367963
560	0.370543
558	0.373382
556	0.376455
554	0.379128
552	0.381935
550	0.384754
548	0.387699
546	0.390526
544	0.393626
542	0.396633
540	0.399720
538	0.402810
536	0.406060
534	0.409274
532	0.412568
530	0.415906
528	0.419311
526	0.422762
524	0.426327
522	0.429710
520	0.433355
518	0.437166
516	0.440893
514	0.444686
512	0.448535
510	0.452510
508	0.456510
506	0.460541
504	0.464606
502	0.468859
500	0.473149
498	0.477592
496	0.481951
494	0.486431
492	0.490986
490	0.495745
488	0.500527
486	0.505548
484	0.510449
482	0.515498
480	0.520611
478	0.525920
476	0.531164
474	0.536493
472	0.542049
470	0.547649
468	0.553178
466	0.559010
464	0.564924
462	0.570879
460	0.577011
458	0.583369
456	0.589588
454	0.596204
452	0.602679
450	0.609686
448	0.616487
446	0.623350
444	0.630604
442	0.637934
440	0.645501
438	0.652969
436	0.660812
434	0.668726
432	0.676627
430	0.684878
428	0.693279
426	0.701939
424	0.710754
422	0.719697
420	0.727553
418	0.736785
416	0.746199
414	0.755853
412	0.765609
410	0.775573
408	0.785844
406	0.796440
404	0.806793
402	0.817599
400	0.828493
398	0.839958
396	0.851599
394	0.863358
392	0.875325
390	0.887352
388	0.900099
386	0.912826
384	0.925409
382	0.946507
380	0.959479
378	0.972467
376	0.986634
374	1.002948
372	1.020550
370	1.034511
368	1.051729
366	1.068333
364	1.088775
362	1.103886
360	1.125554
358	1.140883
356	1.161680
354	1.180196
352	1.199856
350	1.222294
348	1.241480
346	1.260346
344	1.285538
342	1.305175
340	1.336316
338	1.358335
336	1.393087
334	1.425206
332	1.464230
330	1.512019
328	1.595320
326	1.790957
324	2.211427
322	2.938814
320	3.059870
318	3.537177
316	3.537198
314	3.458331
312	3.567619
310	3.583547
308	3.599992
306	3.600168
304	3.600240
302	3.568248
300	3.568105
298	3.552815
296	3.509866
294	3.509589
292	3.599320
290	3.445777
288	3.551336
286	3.566244
284	3.615416
282	3.521771
280	3.550629
278	3.550755
276	3.566054
274	3.508176
272	3.551168
270	3.633477
268	3.633780
266	3.582926
264	3.583098
262	3.692326
260	3.652956
258	3.735981
256	3.759534
254	3.736120
252	3.735968
250	3.672224
248	3.784328
246	3.759701
244	3.811156
242	3.760309
240	3.785481
238	3.840140
236	3.812496
234	3.715945
232	3.813431
230	3.814260
228	3.789149
226	3.742510
224	3.847137
222	3.820312
220	3.794365
218	3.820780
216	3.878981
214	3.911432
212	3.879992
210	3.850536
208	3.851576
206	3.852240
204	3.799559
202	3.752792
200	3.857405

File: PS+NF15.Sample.asc
PE UV       SUBTECH     SPECTRUM    ASCII       PEDS        4.00
   -1
PS+NF15.Sample.asc
24/04/30
10:30:53.00
24/04/30
10:30:53.00
Analyst

200
1
Lambda 25
501S09011401
PerkinElmer UV WinLab 6.0.2.0723 / Lambda25 1.27

480
2
1
0
0
Both on
1
1
1
None
0
0
0
0

0
0
0
0
0

0

0
326
0

0

0
0
0

0

0

0
0
0
0
0

0
0
#HDR
-1
-1
#GR
nm
A
1.0
0.0
700
-1.000000
501
8
3.911166
0.290463
#DATA
700	0.290463
698	0.291571
696	0.292812
694	0.294030
692	0.295342
690	0.296617
688	0.297904
686	0.299224
684	0.300511
682	0.301995
680	0.303407
678	0.304820
676	0.306188
674	0.307426
672	0.308838
670	0.310070
668	0.311450
666	0.312718
664	0.314140
662	0.315633
660	0.316985
658	0.318447
656	0.319931
654	0.321391
652	0.323006
650	0.324528
648	0.326162
646	0.327590
644	0.329309
642	0.330848
640	0.332365
638	0.333990
636	0.335776
634	0.337395
632	0.339074
630	0.340776
628	0.342500
626	0.344263
624	0.346147
622	0.347901
620	0.349788
618	0.351570
616	0.353517
614	0.355471
612	0.357479
610	0.359326
608	0.361357
606	0.363378
604	0.365371
602	0.367385
600	0.369413
598	0.371508
596	0.373536
594	0.375684
592	0.377790
590	0.379975
588	0.382143
586	0.384430
584	0.386695
582	0.389009
580	0.391252
578	0.393730
576	0.396186
574	0.398707
572	0.401147
570	0.403763
568	0.406331
566	0.408897
564	0.411487
562	0.414262
560	0.416940
558	0.420058
556	0.423107
554	0.425875
552	0.428805
550	0.431691
548	0.434637
546	0.437682
544	0.440727
542	0.443928
540	0.447053
538	0.450209
536	0.453444
534	0.456673
532	0.460044
530	0.463517
528	0.466985
526	0.470445
524	0.474059
522	0.477536
520	0.481237
518	0.485089
516	0.488913
514	0.492784
512	0.496696
510	0.500753
508	0.504770
506	0.508918
504	0.513046
502	0.517387
500	0.521746
498	0.526262
496	0.530861
494	0.535429
492	0.540005
490	0.544824
488	0.549688
486	0.554600
484	0.559590
482	0.564703
480	0.569822
478	0.574993
476	0.580418
474	0.585839
472	0.591463
470	0.597103
468	0.602843
466	0.608681
464	0.614779
462	0.620883
460	0.627107
458	0.633423
456	0.640069
454	0.646722
452	0.653417
450	0.660394
448	0.667291
446	0.674379
444	0.681679
442	0.689204
440	0.696899
438	0.704557
436	0.712418
434	0.720370
432	0.728602
430	0.737120
428	0.745851
426	0.754820
424	0.763663
422	0.772879
420	0.780910
418	0.790259
416	0.799906
414	0.810052
412	0.820003
410	0.830290
408	0.840923
406	0.851655
404	0.862411
402	0.873532
400	0.884915
398	0.896709
396	0.908638
394	0.920919
392	0.933254
390	0.946013
388	0.959179
386	0.972601
384	0.988823
382	1.007829
380	1.018607
378	1.036426
376	1.051825
374	1.066249
372	1.083758
370	1.100689
368	1.115490
366	1.134668
364	1.154687
362	1.172760
360	1.192343
358	1.210950
356	1.231636
354	1.251480
352	1.271012
350	1.292855
348	1.314058
346	1.327638
344	1.355564
342	1.375119
340	1.399029
338	1.432226
336	1.460471
334	1.490333
332	1.541956
330	1.577977
328	1.701061
326	1.990940
324	2.570156
322	3.273998
320	3.390864
318	3.537177
316	3.458016
314	3.458331
312	3.552379
310	3.496397
308	3.653238
306	3.552744
304	3.552815
302	3.538285
300	3.523902
298	3.552815
296	3.509866
294	3.583375
292	3.567136
290	3.495464
288	3.536613
286	3.522040
284	3.481877
282	3.507982
280	3.494513
278	3.536032
276	3.494698
274	3.481847
272	3.508416
270	3.566530
268	3.536870
266	3.537168
264	3.652734
262	3.616606
260	3.672262
258	3.653007
256	3.713776
254	3.736120
252	3.672299
250	3.713617
248	3.736023
246	3.759701
244	3.784827
242	3.714552
240	3.785481
238	3.785782
236	3.786167
234	3.786526
232	3.813431
230	3.842289
228	3.815478
226	3.790815
224	3.792779
222	3.820312
220	3.820694
218	3.746146
216	3.911166
214	3.770103
212	3.795672
210	3.771355
208	3.823548
206	3.824211
204	3.774736
202	3.730516
200	3.803047

File: PS+NF20.Sample.asc
PE UV       SUBTECH     SPECTRUM    ASCII       PEDS        4.00
   -1
PS+NF20.Sample.asc
24/04/30
10:34:33.00
24/04/30
10:34:33.00
Analyst

200
1
Lambda 25
501S09011401
PerkinElmer UV WinLab 6.0.2.0723 / Lambda25 1.27

480
2
1
0
0
Both on
1
1
1
None
0
0
0
0

0
0
0
0
0

0

0
326
0

0

0
0
0

0

0

0
0
0
0
0

0
0
#HDR
-1
-1
#GR
nm
A
1.0
0.0
700
-1.000000
501
8
4.126918
0.965198
#DATA
700	0.965198
698	0.966534
696	0.967967
694	0.969420
692	0.970784
690	0.972384
688	0.973872
686	0.975462
684	0.977169
682	0.978634
680	0.980191
678	0.981887
676	0.983273
674	0.984848
672	0.986265
670	0.987786
668	0.989184
666	0.990755
664	0.992345
662	0.993708
660	0.995310
658	0.996951
656	0.998452
654	1.000028
652	1.001796
650	1.003314
648	1.005070
646	1.006682
644	1.008409
642	1.010119
640	1.011719
638	1.013527
636	1.015217
634	1.016925
632	1.018753
630	1.020561
628	1.022407
626	1.024328
624	1.026266
622	1.028153
620	1.030035
618	1.031994
616	1.034110
614	1.036057
612	1.038172
610	1.040175
608	1.042148
606	1.044174
604	1.046126
602	1.048204
600	1.050116
598	1.052089
596	1.054055
594	1.055748
592	1.057533
590	1.059303
588	1.060822
586	1.062401
584	1.064005
582	1.065884
580	1.067976
578	1.070185
576	1.072543
574	1.075130
572	1.077541
570	1.080248
568	1.082872
566	1.085617
564	1.088455
562	1.091131
560	1.093869
558	1.097907
556	1.101287
554	1.104097
552	1.106993
550	1.109921
548	1.112977
546	1.115764
544	1.118956
542	1.122099
540	1.125176
538	1.128381
536	1.131431
534	1.134495
532	1.137772
530	1.141047
528	1.144426
526	1.147763
524	1.151064
522	1.154147
520	1.157580
518	1.161110
516	1.164607
514	1.168072
512	1.171508
510	1.174968
508	1.178628
506	1.182173
504	1.185674
502	1.189446
500	1.193058
498	1.197054
496	1.200687
494	1.204542
492	1.208716
490	1.212532
488	1.216703
486	1.221026
484	1.225185
482	1.229531
480	1.233790
478	1.238143
476	1.242578
474	1.247096
472	1.251636
470	1.256087
468	1.260839
466	1.265529
464	1.270330
462	1.275048
460	1.280224
458	1.285170
456	1.290290
454	1.295564
452	1.300857
450	1.306278
448	1.311748
446	1.317531
444	1.323228
442	1.328646
440	1.334329
438	1.340178
436	1.345846
434	1.351704
432	1.358218
430	1.364426
428	1.370464
426	1.376374
424	1.383476
422	1.390758
420	1.396970
418	1.403757
416	1.410687
414	1.417934
412	1.424975
410	1.432180
408	1.439747
406	1.447576
404	1.455129
402	1.462879
400	1.470736
398	1.478964
396	1.487393
394	1.495316
392	1.504365
390	1.512840
388	1.521968
386	1.530493
384	1.543422
382	1.558474
380	1.558297
378	1.563676
376	1.573750
374	1.580708
372	1.597407
370	1.608610
368	1.623258
366	1.636985
364	1.648687
362	1.651692
360	1.667643
358	1.687799
356	1.700132
354	1.704813
352	1.731308
350	1.743424
348	1.752501
346	1.760131
344	1.773629
342	1.794323
340	1.811148
338	1.852533
336	1.874735
334	1.912950
332	1.954013
330	1.982152
328	2.145708
326	2.416498
324	3.009880
322	3.423296
320	3.551715
318	3.457995
316	3.495805
314	3.423569
312	3.470709
310	3.496397
308	3.523604
306	3.509992
304	3.523851
302	3.524044
300	3.552865
298	3.496699
296	3.423951
294	3.496225
292	3.509144
290	3.495464
288	3.482255
286	3.469334
284	3.469287
282	3.369680
280	3.565869
278	3.444952
276	3.456910
274	3.469258
272	3.433782
270	3.495174
268	3.482512
266	3.522928
264	3.509312
262	3.552148
260	3.567526
258	3.496221
256	3.583442
254	3.599900
252	3.567564
250	3.616707
248	3.653049
246	3.653246
244	3.653548
242	3.617642
240	3.737176
238	3.694012
236	3.694396
234	3.694756
232	3.738797
230	3.763108
228	3.764326
226	3.765991
224	3.819108
222	3.793983
220	3.820694
218	3.848809
216	3.794660
214	3.911432
212	4.071878
210	3.912684
208	3.881540
206	3.882203
204	4.126918
202	3.885418
200	3.887368