Folder: GaN-AlGaN/adquisiciones/uvvis 22-5

File: 100_ or 0 Absorbance Baseline.Correction.Raw.csv
nm, A
700, -0.044787
698, -0.044552
696, -0.044293
694, -0.044093
692, -0.043794
690, -0.043598
688, -0.043335
686, -0.043130
684, -0.042875
682, -0.042985
680, -0.042721
678, -0.042576
676, -0.042390
674, -0.042107
672, -0.041886
670, -0.041772
668, -0.041566
666, -0.041444
664, -0.041243
662, -0.041132
660, -0.041037
658, -0.040867
656, -0.040745
654, -0.040697
652, -0.040476
650, -0.040401
648, -0.040254
646, -0.040116
644, -0.040032
642, -0.039949
640, -0.039803
638, -0.039763
636, -0.039616
634, -0.039600
632, -0.039549
630, -0.039501
628, -0.039438
626, -0.039370
624, -0.039327
622, -0.039244
620, -0.039228
618, -0.039192
616, -0.039109
614, -0.039069
612, -0.039061
610, -0.039005
608, -0.038954
606, -0.038954
604, -0.038934
602, -0.038874
600, -0.038779
598, -0.038592
596, -0.038326
594, -0.037857
592, -0.037215
590, -0.036425
588, -0.035474
586, -0.034300
584, -0.033005
582, -0.031820
580, -0.030624
578, -0.029550
576, -0.028689
574, -0.028103
572, -0.027680
570, -0.027309
568, -0.027113
566, -0.026921
564, -0.026852
562, -0.026742
560, -0.026746
558, -0.027341
556, -0.027916
554, -0.028116
552, -0.028319
550, -0.028571
548, -0.028852
546, -0.029124
544, -0.029355
542, -0.029489
540, -0.029514
538, -0.029554
536, -0.029534
534, -0.029599
532, -0.029583
530, -0.029587
528, -0.029603
526, -0.029570
524, -0.029607
522, -0.029558
520, -0.029591
518, -0.029570
516, -0.029562
514, -0.029570
512, -0.029562
510, -0.029550
508, -0.029526
506, -0.029493
504, -0.029514
502, -0.029526
500, -0.029497
498, -0.029562
496, -0.029583
494, -0.029501
492, -0.029518
490, -0.029457
488, -0.029457
486, -0.029323
484, -0.029132
482, -0.028966
480, -0.028766
478, -0.028466
476, -0.028038
474, -0.027716
472, -0.027191
470, -0.026725
468, -0.026321
466, -0.025826
464, -0.025257
462, -0.024834
460, -0.024441
458, -0.024075
456, -0.023758
454, -0.023483
452, -0.023047
450, -0.022750
448, -0.022280
446, -0.021640
444, -0.020982
442, -0.020204
440, -0.019503
438, -0.018659
436, -0.018014
434, -0.017488
432, -0.017104
430, -0.016662
428, -0.016532
426, -0.016390
424, -0.016294
422, -0.016206
420, -0.016181
418, -0.016214
416, -0.016227
414, -0.016260
412, -0.016331
410, -0.016377
408, -0.016465
406, -0.016490
404, -0.016674
402, -0.016716
400, -0.016795
398, -0.016850
396, -0.016795
394, -0.016787
392, -0.016674
390, -0.016607
388, -0.016519
386, -0.016452
384, -0.017534
382, -0.019615
380, -0.019303
378, -0.018118
376, -0.017547
374, -0.016758
372, -0.016632
370, -0.016348
368, -0.016227
366, -0.016390
364, -0.016306
362, -0.016268
360, -0.016114
358, -0.015879
356, -0.015992
354, -0.015372
352, -0.015079
350, -0.014634
348, -0.014075
346, -0.013212
344, -0.012782
342, -0.012436
340, -0.011008
338, -0.011092
336, -0.010902
334, -0.010423
332, -0.009553
330, -0.009387
328, -0.009370
326, -0.014197
324, -0.014088
322, -0.013932
320, -0.013999
318, -0.014155
316, -0.013987
314, -0.014285
312, -0.014479
310, -0.014621
308, -0.014751
306, -0.014987
304, -0.015087
302, -0.015150
300, -0.015138
298, -0.015117
296, -0.014873
294, -0.014630
292, -0.014117
290, -0.013865
288, -0.013591
286, -0.013166
284, -0.013179
282, -0.012959
280, -0.012955
278, -0.012922
276, -0.013073
274, -0.013094
272, -0.013440
270, -0.013671
268, -0.013856
266, -0.014180
264, -0.014260
262, -0.014395
260, -0.014546
258, -0.014642
256, -0.014621
254, -0.014798
252, -0.014777
250, -0.014550
248, -0.014689
246, -0.014919
244, -0.015196
242, -0.015465
240, -0.015754
238, -0.016118
236, -0.016398
234, -0.016753
232, -0.017159
230, -0.017893
228, -0.018946
226, -0.020510
224, -0.022453
222, -0.024227
220, -0.024912
218, -0.024912
216, -0.025027
214, -0.025351
212, -0.026010
210, -0.026464
208, -0.027545
206, -0.028063
204, -0.029773
202, -0.031320
200, -0.033428

File: Ps CeF3 10.Sample.Cycle1.Raw.csv
nm, A
700, 0.812655
698, 0.815382
696, 0.818105
694, 0.820986
692, 0.823712
690, 0.826535
688, 0.829445
686, 0.832384
684, 0.835267
682, 0.838648
680, 0.841679
678, 0.844689
676, 0.847682
674, 0.850684
672, 0.853436
670, 0.856428
668, 0.859209
666, 0.862237
664, 0.865122
662, 0.868179
660, 0.871216
658, 0.874230
656, 0.877434
654, 0.880649
652, 0.883715
650, 0.887013
648, 0.890327
646, 0.893646
644, 0.896955
642, 0.900290
640, 0.903494
638, 0.907023
636, 0.910345
634, 0.913762
632, 0.917268
630, 0.920774
628, 0.924360
626, 0.927839
624, 0.931439
622, 0.935030
620, 0.938823
618, 0.942490
616, 0.946178
614, 0.950012
612, 0.953842
610, 0.957694
608, 0.961477
606, 0.965272
604, 0.969229
602, 0.973257
600, 0.977176
598, 0.981231
596, 0.985286
594, 0.989143
592, 0.993264
590, 0.997408
588, 1.001568
586, 1.005769
584, 1.009753
582, 1.013911
580, 1.018082
578, 1.022187
576, 1.026523
574, 1.030935
572, 1.035391
570, 1.039553
568, 1.044073
566, 1.048512
564, 1.052893
562, 1.057326
560, 1.061921
558, 1.067061
556, 1.071652
554, 1.076293
552, 1.080983
550, 1.085671
548, 1.090532
546, 1.095131
544, 1.100090
542, 1.105210
540, 1.110226
538, 1.115105
536, 1.120245
534, 1.125479
532, 1.130693
530, 1.135825
528, 1.141311
526, 1.146591
524, 1.151890
522, 1.157285
520, 1.163008
518, 1.168574
516, 1.174286
514, 1.180028
512, 1.185707
510, 1.191394
508, 1.197209
506, 1.203030
504, 1.208984
502, 1.215012
500, 1.221084
498, 1.227336
496, 1.233703
494, 1.239709
492, 1.245971
490, 1.252320
488, 1.259047
486, 1.265521
484, 1.272268
482, 1.278766
480, 1.285649
478, 1.292149
476, 1.299117
474, 1.305906
472, 1.312861
470, 1.319837
468, 1.326743
466, 1.333508
464, 1.340860
462, 1.348232
460, 1.355403
458, 1.362641
456, 1.370546
454, 1.377668
452, 1.385457
450, 1.393442
448, 1.401000
446, 1.409174
444, 1.417189
442, 1.425259
440, 1.433704
438, 1.441742
436, 1.450047
434, 1.458660
432, 1.467488
430, 1.476082
428, 1.484925
426, 1.494076
424, 1.503209
422, 1.512279
420, 1.520636
418, 1.529784
416, 1.539250
414, 1.548800
412, 1.558601
410, 1.568599
408, 1.578556
406, 1.589166
404, 1.599202
402, 1.609665
400, 1.619899
398, 1.630707
396, 1.641681
394, 1.653175
392, 1.664685
390, 1.676560
388, 1.688752
386, 1.701322
384, 1.715853
382, 1.719672
380, 1.731054
378, 1.749072
376, 1.766152
374, 1.777208
372, 1.803646
370, 1.812228
368, 1.832672
366, 1.844079
364, 1.860060
362, 1.893070
360, 1.906873
358, 1.920013
356, 1.933925
354, 1.950166
352, 1.972110
350, 1.987692
348, 1.987951
346, 2.041009
344, 2.076269
342, 2.047706
340, 2.074997
338, 2.142448
336, 2.128377
334, 2.165946
332, 2.259044
330, 2.217697
328, 2.242957
326, 2.305776
324, 2.338309
322, 2.377444
320, 2.401216
318, 2.429824
316, 2.456480
314, 2.486655
312, 2.527340
310, 2.569017
308, 2.606512
306, 2.643919
304, 2.718422
302, 2.769637
300, 2.862849
298, 2.993927
296, 3.182364
294, 3.342532
292, 3.522755
290, 3.691646
288, 3.899648
286, 3.899223
284, 4.110089
282, 3.757687
280, 3.971563
278, 3.971529
276, 4.058831
274, 3.899151
272, 4.013440
270, 4.013671
268, 4.059614
266, 4.236029
264, 4.060018
262, 4.060152
260, 4.111456
258, 4.060400
256, 4.111531
254, 4.060555
252, 4.169679
250, 4.169452
248, 4.060446
246, 4.236768
244, 4.170098
242, 4.170367
240, 4.413694
238, 4.317148
236, 4.317428
234, 4.171655
232, 4.239007
230, 4.239741
228, 4.240795
226, 4.020510
224, 4.119363
222, 4.069984
220, 4.179814
218, 4.121822
216, 4.179929
214, 4.247200
212, 4.122920
210, 4.072221
208, 4.249394
206, 4.073820
204, 4.184675
202, 3.989927
200, 4.255277