Folder: Gan-AlGaN/adquisiciones/uvvis hexagonales

File: abstodas.csv
nm, Abs ps,Abs nf,abs pvt,abs pvtcef3,
700,0.864506,2.327937,1.106105,1.301736,1.078352
697,0.867439,2.330994,1.110492,1.306101,1.081973
694,0.870197,2.333936,1.114788,1.310214,1.085346
691,0.873028,2.336189,1.11917,1.314513,1.088986
688,0.875948,2.340063,1.123544,1.320063,1.092649
685,0.878858,2.344003,1.127996,1.324388,1.096177
682,0.882956,2.348309,1.136525,1.331022,1.102447
679,0.886025,2.351553,1.141394,1.336942,1.107027
676,0.88903,2.353876,1.145604,1.341333,1.110635
673,0.892172,2.356203,1.150018,1.345676,1.114369
670,0.895216,2.359571,1.154493,1.350104,1.117954
667,0.898133,2.360219,1.158878,1.354556,1.121807
664,0.901371,2.364525,1.16356,1.359254,1.125608
661,0.904535,2.366204,1.168093,1.36364,1.129375
658,0.907641,2.369623,1.172446,1.368329,1.132901
655,0.910751,2.372216,1.177042,1.373056,1.136807
652,0.913977,2.37482,1.181743,1.377548,1.14058
649,0.917309,2.378465,1.186276,1.382648,1.144414
646,0.920565,2.380136,1.191002,1.387419,1.148236
643,0.923741,2.381839,1.195622,1.392076,1.152064
640,0.927256,2.385551,1.200249,1.397065,1.155896
637,0.93054,2.388267,1.20487,1.401755,1.159704
634,0.933962,2.390103,1.209555,1.406677,1.163509
631,0.937427,2.39301,1.214378,1.411434,1.167549
628,0.94081,2.395862,1.219048,1.416376,1.171494
625,0.944362,2.397813,1.224108,1.421553,1.175489
622,0.947838,2.400734,1.228857,1.426546,1.179545
619,0.95141,2.401667,1.233791,1.431487,1.183637
616,0.954993,2.4056,1.238902,1.436792,1.187811
613,0.9588,2.407585,1.244053,1.441993,1.192074
610,0.962458,2.410601,1.249056,1.447146,1.196443
607,0.966283,2.413661,1.254356,1.452724,1.201007
604,0.970074,2.415641,1.259944,1.458079,1.205743
601,0.974107,2.41765,1.265845,1.464217,1.210812
598,0.978266,2.420501,1.271913,1.470347,1.216184
595,0.982216,2.422141,1.278953,1.476871,1.222115
592,0.986597,2.425524,1.286662,1.484579,1.228766
589,0.991026,2.428503,1.295122,1.492386,1.235516
586,0.99527,2.431103,1.3029,1.500094,1.242206
583,0.99944,2.433631,1.309541,1.507117,1.247875
580,1.003528,2.435014,1.314674,1.513183,1.252649
577,1.00758,2.436882,1.319111,1.518246,1.256811
574,1.011479,2.439137,1.323304,1.523091,1.260962
571,1.015117,2.437371,1.327483,1.527634,1.265018
568,1.018892,2.443824,1.332418,1.532869,1.2694
565,1.022511,2.444597,1.336996,1.53825,1.273767
562,1.026007,2.447976,1.342129,1.543456,1.278272
559,1.029702,2.45031,1.347951,1.548952,1.283377
556,1.034465,2.450233,1.343508,1.548437,1.281246
553,1.038265,2.45395,1.348644,1.554202,1.2862
550,1.042219,2.455447,1.353917,1.559824,1.291365
547,1.046208,2.457041,1.359061,1.565754,1.296276
544,1.050203,2.459831,1.364939,1.571777,1.301745
541,1.054064,2.459892,1.370873,1.578094,1.307291
538,1.058475,2.463532,1.376747,1.584867,1.313126
535,1.062644,2.465915,1.382894,1.591329,1.31894
532,1.067067,2.468335,1.388756,1.597751,1.324943
529,1.071393,2.471828,1.394858,1.604617,1.3308
526,1.075975,2.47435,1.401056,1.611641,1.33695
523,1.080205,2.474354,1.406924,1.618166,1.342812
520,1.084657,2.478084,1.413269,1.625385,1.34938
517,1.089247,2.48169,1.419337,1.632568,1.355431
514,1.093885,2.484186,1.425483,1.639442,1.36204
511,1.098606,2.486627,1.431977,1.646716,1.368777
508,1.103463,2.487865,1.43838,1.653964,1.375268
505,1.108251,2.49165,1.444573,1.661554,1.381988
502,1.113441,2.494232,1.451116,1.668932,1.388846
499,1.118426,2.494183,1.457652,1.676331,1.395807
496,1.124005,2.499277,1.464574,1.683907,1.402931
493,1.129401,2.503101,1.471452,1.691782,1.410347
490,1.134796,2.503105,1.478483,1.700047,1.417828
487,1.140462,2.508177,1.485868,1.708131,1.425846
484,1.146445,2.510683,1.493017,1.716597,1.433591
481,1.152098,2.515618,1.500433,1.724776,1.441798
478,1.158032,2.517949,1.50801,1.733147,1.449855
475,1.163747,2.519987,1.514892,1.740937,1.45765
472,1.169897,2.523318,1.522638,1.749729,1.466246
469,1.175891,2.526728,1.529485,1.757603,1.474112
466,1.181814,2.530187,1.535633,1.76566,1.481664
463,1.187719,2.533567,1.542341,1.774021,1.488876
460,1.193677,2.535779,1.548368,1.782037,1.4967
457,1.200044,2.542336,1.554399,1.790022,1.504476
454,1.206084,2.54462,1.56004,1.797619,1.511571
451,1.212039,2.542735,1.566072,1.804732,1.51936
448,1.218974,2.550798,1.572612,1.813112,1.52724
445,1.225284,2.554297,1.578998,1.822233,1.536153
442,1.231795,2.55607,1.585714,1.830473,1.544147
439,1.239033,2.56706,1.592172,1.839869,1.553612
436,1.246448,2.567639,1.598263,1.848508,1.562891
433,1.254026,2.574524,1.604376,1.856536,1.571244
430,1.261521,2.578806,1.610187,1.865187,1.580076
427,1.268953,2.573885,1.615827,1.873662,1.58823
424,1.277429,2.589619,1.621854,1.883231,1.597829
421,1.281587,2.601174,1.622221,1.892622,1.607738
418,1.290079,2.607832,1.628682,1.896156,1.610555
415,1.298531,2.614801,1.634906,1.905949,1.620177
412,1.307167,2.623655,1.640689,1.915637,1.630032
409,1.316022,2.632737,1.647151,1.925238,1.640341
406,1.324832,2.639955,1.65292,1.935545,1.650296
403,1.333996,2.647467,1.658177,1.945169,1.660274
400,1.34369,2.662695,1.664814,1.956862,1.671234
397,1.353643,2.670426,1.670621,1.968337,1.682526
394,1.363583,2.680336,1.676549,1.980965,1.693131
391,1.373938,2.696553,1.682245,1.993447,1.704522
388,1.384843,2.708994,1.688723,2.008742,1.716112
385,1.396275,2.717662,1.694503,2.025733,1.727819
382,1.417572,2.810768,1.776253,2.159346,1.791113
379,1.415382,2.580342,1.728058,2.053362,1.76524
376,1.433385,2.67159,1.739189,2.087503,1.78292
373,1.442212,2.709441,1.753065,2.118761,1.790595
370,1.456063,2.708952,1.736553,2.112274,1.793992
367,1.472787,2.685696,1.748468,2.138738,1.823821
364,1.485058,2.691999,1.755971,2.163801,1.838745
361,1.501745,2.79085,1.778867,2.190734,1.86326
358,1.516131,2.630486,1.765185,2.215376,1.867182
355,1.519054,2.61115,1.764346,2.187324,1.870788
352,1.539164,2.718896,1.797551,2.261213,1.90869
349,1.558598,2.818608,1.804993,2.263229,1.932441
346,1.575216,2.765626,1.783918,2.294268,1.950266
343,1.58802,2.774365,1.816788,2.344958,1.986287
340,1.605391,2.591293,1.828264,2.395299,1.99547
337,1.639784,3.029134,1.833581,2.461177,2.047146
334,1.671983,2.993407,1.847875,2.516285,2.082556
331,1.651316,2.692139,1.837016,2.38592,2.047833
328,1.696921,3.07148,1.893728,2.523861,2.15791
325,1.731419,3.351284,1.930181,2.582678,2.178351
322,1.753535,3.59911,1.947758,2.633872,2.219595
319,1.776812,3.566946,1.974294,2.679651,2.262056
316,1.803142,3.551597,1.999895,2.761142,2.308131
313,1.826138,3.672081,2.031329,2.810384,2.356492
310,1.851128,3.583224,2.068135,2.900644,2.417991
307,1.881624,3.634633,2.119974,2.969521,2.470776
304,1.917052,3.617063,2.20209,3.13419,2.58364
301,1.9574,3.672644,2.374585,3.316096,2.725032
298,2.016828,3.634876,2.705457,3.617147,2.954389
295,2.103036,3.713696,2.813329,3.810606,3.095648
292,2.208646,3.691927,2.949689,4.059904,3.265959
289,2.33054,3.712557,3.289311,3.972194,3.598614
286,2.458227,3.712292,3.712292,5.013322,4.013322
283,2.623827,3.535872,3.690774,3.89905,3.808873
280,3.026023,3.597822,3.971402,4.535674,3.898852
277,3.734155,3.651181,3.78246,4.313939,4.012909
274,3.712098,3.56597,4.058886,3.971735,4.013128
271,3.734589,3.536222,4.013343,4.411283,4.712313
268,3.691393,3.651885,4.05937,4.536491,4.536491
265,3.783698,3.652419,3.972754,4.169049,4.537025
262,3.934953,3.810014,4.111044,4.169036,4.235983
259,3.810304,3.713394,3.935243,4.060181,4.060181
256,3.81035,3.784021,4.060228,4.41241,4.236319
253,4.014558,3.838467,4.16946,4.236407,4.315588
250,3.935188,3.735616,4.111279,4.412309,4.236218
247,4.111498,3.86846,4.236436,4.412528,4.412528
244,4.060731,3.868846,4.169876,4.713944,4.537853
241,4.170299,3.901454,4.316427,5.015397,4.413337
238,4.061683,3.901982,4.316955,4.714895,4.714895
235,3.97498,3.737619,4.062131,4.414313,4.171275
232,3.975603,3.903052,4.318026,4.715966,4.318026
229,4.018114,3.813994,4.115024,5.018114,4.319144
226,3.906372,3.874188,4.175218,4.117226,4.242164
223,4.068878,3.876993,4.244969,4.722091,10
220,4.024687,3.820567,4.422627,4.325717,4.325717
217,3.983306,3.945518,4.179601,5.024699,4.325729
214,4.179905,3.945821,4.121913,4.547881,4.547881
211,3.879608,3.946555,4.025736,4.071493,4.247585
208,3.913059,3.913059,4.248852,4.725973,4.549882
205,3.949423,3.91466,4.250453,5.028604,4.250453
202,3.951718,3.80045,4.729869,4.428839,4.076657
200,3.828692,3.886684,4.254661,4.430752,4.254661

File: Ps.Sample.Raw.csv
nm, A
700, 0.864506
698, 0.866502
696, 0.868341
694, 0.870197
692, 0.872179
690, 0.874026
688, 0.875948
686, 0.877906
684, 0.879886
682, 0.882956
680, 0.885063
678, 0.887043
676, 0.889030
674, 0.891157
672, 0.893150
670, 0.895216
668, 0.897201
666, 0.899359
664, 0.901371
662, 0.903410
660, 0.905476
658, 0.907641
656, 0.909704
654, 0.911865
652, 0.913977
650, 0.916163
648, 0.918194
646, 0.920565
644, 0.922705
642, 0.924907
640, 0.927256
638, 0.929357
636, 0.931675
634, 0.933962
632, 0.936180
630, 0.938479
628, 0.940810
626, 0.943244
624, 0.945352
622, 0.947838
620, 0.950166
618, 0.952567
616, 0.954993
614, 0.957625
612, 0.959989
610, 0.962458
608, 0.965000
606, 0.967575
604, 0.970074
602, 0.972778
600, 0.975535
598, 0.978266
596, 0.980976
594, 0.983693
592, 0.986597
590, 0.989618
588, 0.992461
586, 0.995270
584, 0.998080
582, 1.000804
580, 1.003528
578, 1.006253
576, 1.008851
574, 1.011479
572, 1.013967
570, 1.016463
568, 1.018892
566, 1.021336
564, 1.023772
562, 1.026007
560, 1.028447
558, 1.031543
556, 1.034465
554, 1.037069
552, 1.039504
550, 1.042219
548, 1.044829
546, 1.047271
544, 1.050203
542, 1.052895
540, 1.055539
538, 1.058475
536, 1.061392
534, 1.064029
532, 1.067067
530, 1.069977
528, 1.072936
526, 1.075975
524, 1.078824
522, 1.081672
520, 1.084657
518, 1.087779
516, 1.090678
514, 1.093885
512, 1.097018
510, 1.100132
508, 1.103463
506, 1.106668
504, 1.110157
502, 1.113441
500, 1.116912
498, 1.120435
496, 1.124005
494, 1.127541
492, 1.131154
490, 1.134796
488, 1.138592
486, 1.142437
484, 1.146445
482, 1.150030
480, 1.154173
478, 1.158032
476, 1.162036
474, 1.165854
472, 1.169897
470, 1.173871
468, 1.177808
466, 1.181814
464, 1.185760
462, 1.189708
460, 1.193677
458, 1.197673
456, 1.201769
454, 1.206084
452, 1.210261
450, 1.214830
448, 1.218974
446, 1.223165
444, 1.227396
442, 1.231795
440, 1.236712
438, 1.241698
436, 1.246448
434, 1.251300
432, 1.256213
430, 1.261521
428, 1.266779
426, 1.272013
424, 1.277429
422, 1.282482
420, 1.284779
418, 1.290079
416, 1.295674
414, 1.301319
412, 1.307167
410, 1.312851
408, 1.319024
406, 1.324832
404, 1.331117
402, 1.337372
400, 1.343690
398, 1.350519
396, 1.356908
394, 1.363583
392, 1.370702
390, 1.377960
388, 1.384843
386, 1.392187
384, 1.400751
382, 1.417572
380, 1.427620
378, 1.426882
376, 1.433385
374, 1.441349
372, 1.446791
370, 1.456063
368, 1.470363
366, 1.473675
364, 1.485058
362, 1.495775
360, 1.506759
358, 1.516131
356, 1.526300
354, 1.531663
352, 1.539164
350, 1.559591
348, 1.562522
346, 1.575216
344, 1.590976
342, 1.597529
340, 1.605391
338, 1.630189
336, 1.645059
334, 1.671983
332, 1.664539
330, 1.666400
328, 1.696921
326, 1.724827
324, 1.740846
322, 1.753535
320, 1.768265
318, 1.784200
316, 1.803142
314, 1.817089
312, 1.836182
310, 1.851128
308, 1.871412
306, 1.893351
304, 1.917052
302, 1.943214
300, 1.974472
298, 2.016828
296, 2.072331
294, 2.129721
292, 2.208646
290, 2.297828
288, 2.369077
286, 2.458227
284, 2.565978
282, 2.729650
280, 3.026023
278, 3.614863
276, 3.808726
274, 3.712098
272, 3.899332
270, 3.782974
268, 3.691393
266, 3.691835
264, 3.900191
262, 3.934953
260, 3.973031
258, 3.935398
256, 3.810350
254, 3.900754
252, 4.014567
250, 3.935188
248, 3.900527
246, 4.111620
244, 4.060731
242, 4.060983
240, 4.061264
238, 4.061683
236, 4.113162
234, 4.062277
232, 3.975603
230, 3.938424
228, 3.872614
226, 3.906372
224, 4.022197
222, 3.982543
220, 4.024687
218, 3.983216
216, 4.024715
214, 4.179905
212, 4.071276
210, 3.947025
208, 3.913059
206, 4.073409
204, 4.126192
202, 3.951718
200, 3.828692

File: PsNf.Sample.Raw.csv
nm, A
700, 2.327937
698, 2.330257
696, 2.332509
694, 2.333936
692, 2.336248
690, 2.338633
688, 2.340063
686, 2.343312
684, 2.345669
682, 2.348309
680, 2.349945
678, 2.352305
676, 2.353876
674, 2.355431
672, 2.358022
670, 2.359571
668, 2.362067
666, 2.362855
664, 2.364525
662, 2.367139
660, 2.368860
658, 2.369623
656, 2.370499
654, 2.372169
652, 2.374820
650, 2.375699
648, 2.378335
646, 2.380136
644, 2.382854
642, 2.382763
640, 2.385551
638, 2.386364
636, 2.388251
634, 2.390103
632, 2.391042
630, 2.394928
628, 2.395862
626, 2.395866
624, 2.397789
622, 2.400734
620, 2.402664
618, 2.402617
616, 2.405600
614, 2.407673
612, 2.410601
610, 2.410601
608, 2.412598
606, 2.414660
604, 2.415641
602, 2.416629
600, 2.417579
598, 2.420501
596, 2.422388
594, 2.422987
592, 2.425524
590, 2.427899
588, 2.430165
586, 2.431103
584, 2.433146
582, 2.434032
580, 2.435014
578, 2.436219
576, 2.437608
574, 2.439137
572, 2.440934
570, 2.442855
568, 2.443824
566, 2.444711
564, 2.446974
562, 2.447976
560, 2.448111
558, 2.449687
556, 2.450233
554, 2.451554
552, 2.454076
550, 2.455447
548, 2.456972
546, 2.457200
544, 2.459831
542, 2.462264
540, 2.463512
538, 2.463532
536, 2.467115
534, 2.467079
532, 2.468335
530, 2.469493
528, 2.471933
526, 2.474350
524, 2.474387
522, 2.475566
520, 2.478084
518, 2.481715
516, 2.481723
514, 2.484186
512, 2.485373
510, 2.486623
508, 2.487865
506, 2.489168
504, 2.491626
502, 2.494232
500, 2.496751
498, 2.498031
496, 2.499277
494, 2.501859
492, 2.503101
490, 2.503105
488, 2.508266
486, 2.510752
484, 2.510683
482, 2.513079
480, 2.515553
478, 2.517949
476, 2.521582
474, 2.523836
472, 2.523318
470, 2.525597
468, 2.527871
466, 2.530187
464, 2.532414
462, 2.534679
460, 2.535779
458, 2.536739
456, 2.542102
454, 2.544620
452, 2.545785
450, 2.547099
448, 2.550798
446, 2.553123
444, 2.558369
442, 2.556070
440, 2.562962
438, 2.569765
436, 2.567639
434, 2.568486
432, 2.569704
430, 2.578806
428, 2.581792
426, 2.586554
424, 2.589619
422, 2.597779
420, 2.601153
418, 2.607832
416, 2.613043
414, 2.618295
412, 2.623655
410, 2.625379
408, 2.636216
406, 2.639955
404, 2.649235
402, 2.653187
400, 2.662695
398, 2.668545
396, 2.676380
394, 2.680336
392, 2.692530
390, 2.698586
388, 2.708994
386, 2.715439
384, 2.708121
382, 2.810768
380, 2.747399
378, 2.683826
376, 2.671590
374, 2.625948
372, 2.645915
370, 2.708952
368, 2.733481
366, 2.737498
364, 2.691999
362, 2.744548
360, 2.728429
358, 2.630486
356, 2.788231
354, 2.663353
352, 2.718896
350, 2.731744
348, 2.719689
346, 2.765626
344, 2.854546
342, 2.839149
340, 2.591293
338, 2.805019
336, 3.066999
334, 2.993407
332, 3.140877
330, 2.717946
328, 3.071480
326, 3.236042
324, 3.457777
322, 3.599110
320, 3.652297
318, 3.691919
316, 3.551597
314, 3.583006
312, 3.759311
310, 3.583224
308, 3.634528
306, 3.672488
304, 3.617063
302, 3.736342
300, 3.617135
298, 3.634876
296, 3.736082
294, 3.652789
292, 3.691927
290, 3.615891
288, 3.582152
286, 3.712292
284, 3.690917
282, 3.565793
280, 3.597822
278, 3.550405
276, 3.565688
274, 3.565970
272, 3.633064
270, 3.691204
268, 3.651885
266, 3.671631
264, 3.810014
262, 3.810014
260, 3.692205
258, 3.692360
256, 3.784021
254, 3.735943
252, 3.759294
250, 3.735616
248, 3.810350
246, 3.759437
244, 3.868846
242, 3.839134
240, 3.811386
238, 3.901982
236, 3.840160
234, 3.902576
232, 3.903052
230, 3.813485
228, 3.939561
226, 3.874188
224, 3.876069
222, 3.944754
220, 3.820567
218, 3.878481
216, 3.910772
214, 3.945821
212, 4.025519
210, 3.850115
208, 3.913059
206, 3.881523
204, 3.853191
202, 3.800450
200, 3.886684

File: Pvt .Sample.Raw.csv
nm, A
700, 1.106105
698, 1.109080
696, 1.111944
694, 1.114788
692, 1.117681
690, 1.120656
688, 1.123544
686, 1.126433
684, 1.129561
682, 1.136525
680, 1.139593
678, 1.142625
676, 1.145604
674, 1.148583
672, 1.151660
670, 1.154493
668, 1.157550
666, 1.160559
664, 1.163560
662, 1.166483
660, 1.169502
658, 1.172446
656, 1.175700
654, 1.178662
652, 1.181743
650, 1.184822
648, 1.187911
646, 1.191002
644, 1.193944
642, 1.197022
640, 1.200249
638, 1.203189
636, 1.206510
634, 1.209555
632, 1.212744
630, 1.215892
628, 1.219048
626, 1.222349
624, 1.225549
622, 1.228857
620, 1.232159
618, 1.235374
616, 1.238902
614, 1.242195
612, 1.245548
610, 1.249056
608, 1.252612
606, 1.256398
604, 1.259944
602, 1.263815
600, 1.267756
598, 1.271913
596, 1.276560
594, 1.281324
592, 1.286662
590, 1.292524
588, 1.297959
586, 1.302900
584, 1.307608
582, 1.311237
580, 1.314674
578, 1.317614
576, 1.320507
574, 1.323304
572, 1.326212
570, 1.329173
568, 1.332418
566, 1.335516
564, 1.338783
562, 1.342129
560, 1.345961
558, 1.342962
556, 1.343508
554, 1.346835
552, 1.350409
550, 1.353917
548, 1.357508
546, 1.360989
544, 1.364939
542, 1.368899
540, 1.372782
538, 1.376747
536, 1.380755
534, 1.384736
532, 1.388756
530, 1.393012
528, 1.397085
526, 1.401056
524, 1.405096
522, 1.409000
520, 1.413269
518, 1.417235
516, 1.421399
514, 1.425483
512, 1.429776
510, 1.434173
508, 1.438380
506, 1.442348
504, 1.446700
502, 1.451116
500, 1.455706
498, 1.460136
496, 1.464574
494, 1.468985
492, 1.473621
490, 1.478483
488, 1.483479
486, 1.488186
484, 1.493017
482, 1.497858
480, 1.503078
478, 1.508010
476, 1.512743
474, 1.517350
472, 1.522638
470, 1.526831
468, 1.531471
466, 1.535633
464, 1.540306
462, 1.544056
460, 1.548368
458, 1.552586
456, 1.556529
454, 1.560040
452, 1.563967
450, 1.568536
448, 1.572612
446, 1.576957
444, 1.581435
442, 1.585714
440, 1.589899
438, 1.594571
436, 1.598263
434, 1.602219
432, 1.606591
430, 1.610187
428, 1.614788
426, 1.618366
424, 1.621854
422, 1.626383
420, 1.624838
418, 1.628682
416, 1.632528
414, 1.636929
412, 1.640689
410, 1.644693
408, 1.648699
406, 1.652920
404, 1.656945
402, 1.660965
400, 1.664814
398, 1.669129
396, 1.673022
394, 1.676549
392, 1.680753
390, 1.684817
388, 1.688723
386, 1.692599
384, 1.729949
382, 1.776253
380, 1.756553
378, 1.730926
376, 1.739189
374, 1.732678
372, 1.738458
370, 1.736553
368, 1.748907
366, 1.746739
364, 1.755971
362, 1.760635
360, 1.766788
358, 1.765185
356, 1.777069
354, 1.776487
352, 1.797551
350, 1.799672
348, 1.800372
346, 1.783918
344, 1.811239
342, 1.812032
340, 1.828264
338, 1.853784
336, 1.885675
334, 1.847875
332, 1.898175
330, 1.870009
328, 1.893728
326, 1.923935
324, 1.938532
322, 1.947758
320, 1.965195
318, 1.979109
316, 1.999895
314, 2.018296
312, 2.044702
310, 2.068135
308, 2.099339
306, 2.138693
304, 2.202090
302, 2.301605
300, 2.475999
298, 2.705457
296, 2.832992
294, 2.797032
292, 2.949689
290, 3.181322
288, 3.400732
286, 3.712292
284, 3.837045
282, 3.899008
280, 3.971402
278, 4.058561
276, 3.933664
274, 4.058886
272, 4.013276
270, 4.013423
268, 4.059370
266, 3.900111
264, 3.900191
262, 4.111044
260, 4.060181
258, 3.935398
256, 4.060228
254, 4.169599
252, 4.111477
250, 4.111279
248, 4.111380
246, 4.169611
244, 4.169876
242, 4.170128
240, 4.112416
238, 4.316955
236, 4.317282
234, 4.171421
232, 4.318026
230, 4.172507
228, 4.319772
226, 4.175218
224, 4.119107
222, 4.245784
220, 4.422627
218, 4.179511
216, 4.325745
214, 4.121913
212, 4.247368
210, 4.424146
208, 4.248852
206, 4.249500
204, 4.251131
202, 4.729869
200, 4.254661

File: pvt cef3.Sample.Cycle1.Raw.csv
nm, A
700, 1.301736
698, 1.304540
696, 1.307442
694, 1.310214
692, 1.313197
690, 1.315937
688, 1.320063
686, 1.322991
684, 1.325977
682, 1.331022
680, 1.335563
678, 1.338264
676, 1.341333
674, 1.344228
672, 1.347364
670, 1.350104
668, 1.352987
666, 1.356079
664, 1.359254
662, 1.362289
660, 1.365455
658, 1.368329
656, 1.371521
654, 1.374505
652, 1.377548
650, 1.381091
648, 1.384145
646, 1.387419
644, 1.390477
642, 1.393709
640, 1.397065
638, 1.400190
636, 1.403342
634, 1.406677
632, 1.409789
630, 1.413026
628, 1.416376
626, 1.419704
624, 1.423103
622, 1.426546
620, 1.429878
618, 1.433153
616, 1.436792
614, 1.440107
612, 1.443604
610, 1.447146
608, 1.450778
606, 1.454498
604, 1.458079
602, 1.461926
600, 1.466232
598, 1.470347
596, 1.474976
594, 1.479536
592, 1.484579
590, 1.489759
588, 1.495140
586, 1.500094
584, 1.504756
582, 1.509283
580, 1.513183
578, 1.516155
576, 1.519874
574, 1.523091
572, 1.526325
570, 1.529566
568, 1.532869
566, 1.536535
564, 1.540044
562, 1.543456
560, 1.547031
558, 1.546597
556, 1.548437
554, 1.552370
552, 1.556083
550, 1.559824
548, 1.563894
546, 1.567560
544, 1.571777
542, 1.576125
540, 1.580344
538, 1.584867
536, 1.589129
534, 1.593527
532, 1.597751
530, 1.602239
528, 1.606851
526, 1.611641
524, 1.615846
522, 1.620870
520, 1.625385
518, 1.629989
516, 1.635046
514, 1.639442
512, 1.644371
510, 1.649237
508, 1.653964
506, 1.658799
504, 1.663770
502, 1.668932
500, 1.674054
498, 1.678874
496, 1.683907
494, 1.689442
492, 1.694585
490, 1.700047
488, 1.705327
486, 1.710785
484, 1.716597
482, 1.721457
480, 1.727306
478, 1.733147
476, 1.738721
474, 1.744099
472, 1.749729
470, 1.755047
468, 1.760656
466, 1.765660
464, 1.771110
462, 1.776419
460, 1.782037
458, 1.787089
456, 1.792585
454, 1.797619
452, 1.802798
450, 1.808192
448, 1.813112
446, 1.819255
444, 1.824868
442, 1.830473
440, 1.836343
438, 1.842670
436, 1.848508
434, 1.854329
432, 1.860313
430, 1.865187
428, 1.871475
426, 1.877372
424, 1.883231
422, 1.889624
420, 1.889995
418, 1.896156
416, 1.902889
414, 1.909364
412, 1.915637
410, 1.921843
408, 1.929356
406, 1.935545
404, 1.942140
402, 1.949729
400, 1.956862
398, 1.964540
396, 1.972677
394, 1.980965
392, 1.989055
390, 1.997948
388, 2.008742
386, 2.018210
384, 2.010430
382, 2.159346
380, 2.102261
378, 2.087841
376, 2.087503
374, 2.106259
372, 2.103699
370, 2.112274
368, 2.161264
366, 2.147020
364, 2.163801
362, 2.167585
360, 2.192105
358, 2.215376
356, 2.201870
354, 2.195992
352, 2.261213
350, 2.221255
348, 2.315185
346, 2.294268
344, 2.296071
342, 2.378867
340, 2.395299
338, 2.413055
336, 2.502279
334, 2.516285
332, 2.468530
330, 2.543335
328, 2.523861
326, 2.554800
324, 2.600780
322, 2.633872
320, 2.665720
318, 2.706642
316, 2.761142
314, 2.786483
312, 2.841397
310, 2.900644
308, 2.950281
306, 3.023685
304, 3.134190
302, 3.244244
300, 3.435291
298, 3.617147
296, 3.759563
294, 3.735763
292, 4.059904
290, 3.972438
288, 4.110426
286, 5.013322
284, 4.314166
282, 4.109861
280, 4.535674
278, 4.058561
276, 4.535724
274, 3.971735
272, 4.411216
270, 4.168325
268, 4.536491
266, 4.411994
264, 4.713104
262, 4.169036
260, 4.537303
258, 4.713549
256, 4.412410
254, 5.014697
252, 4.412507
250, 4.412309
248, 4.412410
246, 4.537588
244, 4.713944
242, 4.538104
240, 4.714476
238, 4.714895
236, 4.715222
234, 4.715489
232, 4.715966
230, 5.017605
228, 4.717712
226, 4.117226
224, 4.420137
222, 10
220, 4.325717
218, 4.547488
216, 4.422655
214, 4.547881
212, 4.423459
210, 5.026206
208, 4.725973
206, 4.726621
204, 4.330312
202, 4.428839
200, 4.430752

File: pvtcef3.Sample.Cycle1.Raw.csv
nm, A
700, 1.078352
698, 1.080705
696, 1.083085
694, 1.085346
692, 1.087650
690, 1.090123
688, 1.092649
686, 1.094982
684, 1.097479
682, 1.102447
680, 1.105876
678, 1.108255
676, 1.110635
674, 1.113262
672, 1.115729
670, 1.117954
668, 1.120538
666, 1.123080
664, 1.125608
662, 1.127956
660, 1.130440
658, 1.132901
656, 1.135597
654, 1.138062
652, 1.140580
650, 1.143099
648, 1.145610
646, 1.148236
644, 1.150832
642, 1.153215
640, 1.155896
638, 1.158535
636, 1.161065
634, 1.163509
632, 1.166140
630, 1.168904
628, 1.171494
626, 1.174274
624, 1.176893
622, 1.179545
620, 1.182242
618, 1.184920
616, 1.187811
614, 1.190620
612, 1.193457
610, 1.196443
608, 1.199397
606, 1.202491
604, 1.205743
602, 1.209024
600, 1.212551
598, 1.216184
596, 1.220046
594, 1.224237
592, 1.228766
590, 1.233378
588, 1.237925
586, 1.242206
584, 1.246136
582, 1.249542
580, 1.252649
578, 1.255427
576, 1.258189
574, 1.260962
572, 1.263943
570, 1.266689
568, 1.269400
566, 1.272120
564, 1.275479
562, 1.278272
560, 1.281753
558, 1.280155
556, 1.281246
554, 1.284464
552, 1.287903
550, 1.291365
548, 1.294762
546, 1.297965
544, 1.301745
542, 1.305506
540, 1.309366
538, 1.313126
536, 1.317095
534, 1.320951
532, 1.324943
530, 1.328783
528, 1.332909
526, 1.336950
524, 1.341061
522, 1.345052
520, 1.349380
518, 1.353528
516, 1.357677
514, 1.362040
512, 1.366400
510, 1.370865
508, 1.375268
506, 1.379676
504, 1.384317
502, 1.388846
500, 1.393419
498, 1.398269
496, 1.402931
494, 1.407898
492, 1.412860
490, 1.417828
488, 1.423238
486, 1.428293
484, 1.433591
482, 1.439004
480, 1.444552
478, 1.449855
476, 1.455332
474, 1.460600
472, 1.466246
470, 1.471199
468, 1.476566
466, 1.481664
464, 1.486601
462, 1.491756
460, 1.496700
458, 1.501564
456, 1.506877
454, 1.511571
452, 1.517078
450, 1.522397
448, 1.527240
446, 1.532779
444, 1.539038
442, 1.544147
440, 1.550538
438, 1.556223
436, 1.562891
434, 1.567868
432, 1.574226
430, 1.580076
428, 1.585480
426, 1.592405
424, 1.597829
422, 1.603956
420, 1.604170
418, 1.610555
416, 1.617183
414, 1.623714
412, 1.630032
410, 1.636465
408, 1.643515
406, 1.650296
404, 1.657134
402, 1.664231
400, 1.671234
398, 1.678194
396, 1.686005
394, 1.693131
392, 1.700842
390, 1.708085
388, 1.716112
386, 1.723992
384, 1.749173
382, 1.791113
380, 1.773728
378, 1.764216
376, 1.782920
374, 1.799399
372, 1.799763
370, 1.793992
368, 1.827573
366, 1.830710
364, 1.838745
362, 1.845249
360, 1.852176
358, 1.867182
356, 1.895873
354, 1.886814
352, 1.908690
350, 1.921974
348, 1.951197
346, 1.950266
344, 1.958679
342, 2.002035
340, 1.995470
338, 2.044297
336, 2.051011
334, 2.082556
332, 2.108106
330, 2.107112
328, 2.157910
326, 2.174715
324, 2.195194
322, 2.219595
320, 2.246869
318, 2.271413
316, 2.308131
314, 2.331322
312, 2.378096
310, 2.417991
308, 2.460856
306, 2.508406
304, 2.583640
302, 2.670703
300, 2.792358
298, 2.954389
296, 3.085417
294, 3.133703
292, 3.265959
290, 3.422767
288, 3.691296
286, 4.013322
284, 4.110047
282, 4.234800
280, 3.898852
278, 4.313833
276, 4.167748
274, 4.013128
272, 4.168177
270, 4.110333
268, 4.536491
266, 4.235903
264, 4.412074
262, 4.235983
260, 4.236273
258, 4.111489
256, 4.236319
254, 4.169599
252, 4.236415
250, 4.236218
248, 4.236319
246, 4.537588
244, 4.537853
242, 4.413166
240, 4.316536
238, 4.714895
236, 4.238100
234, 4.539398
232, 4.318026
230, 4.239454
228, 4.541621
226, 4.242164
224, 4.323227
222, 4.245784
220, 4.325717
218, 4.422549
216, 4.325745
214, 4.547881
212, 4.423459
210, 4.327236
208, 4.549882
206, 4.328681
204, 4.184184
202, 4.076657
200, 4.254661