Folder: Gan-AlGaN/adquisiciones/MEDIDAS FINALES 28-6/pl final

Note: adquisiciones/MEDIDAS FINALES 28-6/pl final/pl final cef3 y nf.txt
blanco	PS 260:265-510	Cef3 5 260:265-510	Cef3 10 260:265-510	Naf 5 260:265-510	Naf 10 260:265-510	Naf 15 260:265-510	Naf 20 260:265-510	Emcorri	WG280 %T
265	360.034	416.714	396.71	443.385	386.707	520.072	313.36	426.715	4.93484	3.882861137
266	600.095	446.724	433.384	396.709	336.697	450.054	450.055	443.386	5.547325	4.890387058
267	520.072	380.039	476.727	396.71	433.388	300.024	493.398	396.709	6.15981	5.867950439
268	470.059	296.691	330.029	456.723	420.05	360.034	473.394	320.027	5.481575	6.828295231
269	420.047	346.702	316.693	326.696	450.054	390.04	403.376	320.028	4.80334	8.324011803
270	330.029	303.358	380.039	463.391	430.05	330.029	436.717	423.381	4.49386	9.860377312
271	360.034	380.039	360.035	416.713	346.699	520.072	376.706	366.703	4.18438	11.53734875
272	380.038	366.703	406.712	306.692	456.724	300.024	406.712	420.049	4.371635	13.2042141
273	380.038	323.361	356.702	440.051	350.033	240.015	356.701	410.045	4.55889	14.85483932
274	240.015	426.716	403.378	286.689	396.711	390.04	360.036	403.377	4.31687	17.20119095
275	520.072	376.707	370.037	326.695	366.703	470.059	330.029	463.394	4.208185361	19.40528297
276	490.064	323.362	303.358	320.028	453.39	450.054	376.705	376.707	4.401569581	21.73467064
277	530.074	293.357	340.031	350.033	373.371	290.022	423.384	336.697	4.366415368	24.19181824
278	520.072	320.027	333.366	383.373	326.695	470.059	403.377	363.369	4.031093334	26.39494896
279	480.061	363.37	330.03	270.02	340.031	600.095	460.057	466.725	3.802248839	29.03180504
280	390.04	310.026	406.711	336.697	353.367	450.054	420.048	396.709	3.71347234	31.96199036
281	380.038	333.363	280.022	310.026	330.03	340.031	403.378	423.381	3.835671348	34.88673782
282	300.024	430.049	343.366	276.688	350.034	460.056	346.701	313.359	3.895643428	37.53077698
283	370.036	336.698	366.703	383.373	346.7	420.047	346.7	390.04	3.926206329	39.91796494
284	460.056	313.36	346.699	363.368	463.391	490.064	293.357	333.364	3.848215963	42.4909935
285	370.036	373.371	390.042	256.685	386.708	330.029	396.709	390.041	3.746548057	45.40718079
286	500.066	320.028	346.701	376.704	343.365	230.014	370.037	403.377	3.547659729	48.12622452
287	390.04	370.036	390.044	383.372	376.705	400.042	393.375	393.375	3.43699889	50.12465668
288	370.036	456.724	406.711	370.037	436.718	190.01	473.393	410.046	3.352787076	52.95035172
289	430.049	466.733	333.364	370.038	413.381	330.029	400.043	293.356	3.2313092	55.41016388
290	310.025	423.383	333.363	393.375	396.708	360.034	390.04	400.044	3.253956074	57.68437195
291	380.038	520.077	460.058	436.717	406.711	300.024	416.717	353.367	3.208350947	60.20805359
292	390.04	586.76	396.712	366.703	390.043	460.056	430.05	413.38	3.14198151	62.0943718
293	380.038	693.462	470.059	500.071	396.709	320.027	440.053	423.384	3.096235352	64.26041412
294	480.061	776.827	520.072	533.409	406.711	370.036	396.709	300.025	2.98800558	66.12650299
295	510.069	973.586	573.421	603.432	370.039	440.051	413.379	420.048	2.902201989	67.99963379
296	420.047	1157.02	673.455	696.797	330.029	270.019	426.716	486.73	

File: 3 nf 5 uvvis.csv
700,0.265368
698,0.266433
696,0.267716
694,0.268909
692,0.270172
690,0.271427
688,0.272687
686,0.274075
684,0.2754
682,0.276945
680,0.278364
678,0.279778
676,0.281144
674,0.28248
672,0.283809
670,0.285064
668,0.286335
666,0.287698
664,0.289041
662,0.290536
660,0.291889
658,0.29338
656,0.294786
654,0.296264
652,0.297856
650,0.299229
648,0.300907
646,0.302315
644,0.303964
642,0.305523
640,0.30723
638,0.308787
636,0.310503
634,0.31213
632,0.313876
630,0.315527
628,0.317289
626,0.319066
624,0.320919
622,0.322618
620,0.324488
618,0.326341
616,0.328339
614,0.330196
612,0.332261
610,0.33417
608,0.336171
606,0.338199
604,0.340197
602,0.342249
600,0.344366
598,0.346437
596,0.348581
594,0.350803
592,0.353021
590,0.355274
588,0.357522
586,0.359818
584,0.362353
582,0.364681
580,0.366963
578,0.369471
576,0.371979
574,0.374468
572,0.376974
570,0.379573
568,0.382048
566,0.384563
564,0.387297
562,0.389939
560,0.392744
558,0.395545
556,0.398405
554,0.401211
552,0.404061
550,0.406924
548,0.409902
546,0.412896
544,0.415998
542,0.419146
540,0.422302
538,0.425576
536,0.428806
534,0.432107
532,0.435436
530,0.438953
528,0.442455
526,0.446041
524,0.449595
522,0.453155
520,0.45691
518,0.460778
516,0.464689
514,0.4686
512,0.472526
510,0.476594
508,0.480823
506,0.484948
504,0.489126
502,0.493538
500,0.498032
498,0.502554
496,0.507112
494,0.51178
492,0.516495
490,0.521449
488,0.526503
486,0.531511
484,0.536479
482,0.541854
480,0.547065
478,0.552494
476,0.557963
474,0.563426
472,0.569208
470,0.574849
468,0.580788
466,0.586737
464,0.592816
462,0.59897
460,0.605229
458,0.611771
456,0.618384
454,0.625234
452,0.632097
450,0.639029
448,0.646094
446,0.653347
444,0.660834
442,0.668332
440,0.676303
438,0.684106
436,0.69213
434,0.700322
432,0.708634
430,0.717127
428,0.725901
426,0.735026
424,0.744046
422,0.753469
420,0.761387
418,0.77091
416,0.780641
414,0.790836
412,0.801202
410,0.811645
408,0.822415
406,0.833294
404,0.844304
402,0.855632
400,0.867135
398,0.879082
396,0.891376
394,0.903876
392,0.916416
390,0.929317
388,0.942639
386,0.955923
384,0.973609
382,0.998674
380,1.011938
378,1.020197
376,1.039595
374,1.054295
372,1.07319
370,1.090787
368,1.108988
366,1.124238
364,1.143187
362,1.164613
360,1.184593
358,1.203994
356,1.225327
354,1.245391
352,1.265022
350,1.293102
348,1.308623
346,1.329972
344,1.354321
342,1.378541
340,1.403293
338,1.438233
336,1.466505
334,1.506355
332,1.541218
330,1.571118
328,1.625092
326,1.75032
324,2.000522
322,2.460478
320,2.553215
318,3.298295
316,3.599346
314,3.634423
312,3.736023
310,3.736157
308,3.736212
306,3.653414
304,3.635002
302,3.635195
300,3.73651
298,3.67279
296,3.617076
294,3.672316
292,3.616354
290,3.671556
288,3.691515
286,3.691183
284,3.615416
282,3.536011
280,3.690808
278,3.670731
276,3.615272
274,3.598353
272,3.651838
270,3.691469
268,3.671568
266,3.652562
264,3.692242
262,3.759273
260,3.759412
258,3.735981
256,3.868678
254,3.810753
252,3.810602
250,3.784198
248,3.838685
246,3.935793
244,3.936095
242,3.901639
240,3.901986
238,3.870103
236,3.937434
234,3.870847
232,3.903607
230,3.872252
228,3.87347
226,3.790815
224,3.944047
222,3.910489
220,3.910871
218,3.945719
216,3.983716
214,3.946194
212,3.984728
210,3.850536
208,4.124578
206,3.986939
204,3.916065
202,3.801097
200,3.954315

File: 4 nf 10 uvvis.csv
700,0.248061
698,0.249191
696,0.250332
694,0.251419
692,0.252673
690,0.253961
688,0.255125
686,0.256428
684,0.257761
682,0.259189
680,0.260487
678,0.261929
676,0.263186
674,0.264421
672,0.26578
670,0.266946
668,0.268127
666,0.269443
664,0.270792
662,0.27211
660,0.2734
658,0.274818
656,0.276007
654,0.277484
652,0.27893
650,0.280373
648,0.281932
646,0.283271
644,0.284914
642,0.286449
640,0.288016
638,0.28953
636,0.29117
634,0.29276
632,0.294382
630,0.296013
628,0.297647
626,0.299335
624,0.301185
622,0.302907
620,0.304677
618,0.306451
616,0.308353
614,0.310244
612,0.312134
610,0.31401
608,0.315968
606,0.317937
604,0.319857
602,0.321836
600,0.323865
598,0.325898
596,0.327928
594,0.32998
592,0.332017
590,0.334184
588,0.33639
586,0.338554
584,0.340777
582,0.343323
580,0.345539
578,0.347933
576,0.350334
574,0.352868
572,0.355193
570,0.357773
568,0.360256
566,0.36277
564,0.36533
562,0.367963
560,0.370543
558,0.373382
556,0.376455
554,0.379128
552,0.381935
550,0.384754
548,0.387699
546,0.390526
544,0.393626
542,0.396633
540,0.39972
538,0.40281
536,0.40606
534,0.409274
532,0.412568
530,0.415906
528,0.419311
526,0.422762
524,0.426327
522,0.42971
520,0.433355
518,0.437166
516,0.440893
514,0.444686
512,0.448535
510,0.45251
508,0.45651
506,0.460541
504,0.464606
502,0.468859
500,0.473149
498,0.477592
496,0.481951
494,0.486431
492,0.490986
490,0.495745
488,0.500527
486,0.505548
484,0.510449
482,0.515498
480,0.520611
478,0.52592
476,0.531164
474,0.536493
472,0.542049
470,0.547649
468,0.553178
466,0.55901
464,0.564924
462,0.570879
460,0.577011
458,0.583369
456,0.589588
454,0.596204
452,0.602679
450,0.609686
448,0.616487
446,0.62335
444,0.630604
442,0.637934
440,0.645501
438,0.652969
436,0.660812
434,0.668726
432,0.676627
430,0.684878
428,0.693279
426,0.701939
424,0.710754
422,0.719697
420,0.727553
418,0.736785
416,0.746199
414,0.755853
412,0.765609
410,0.775573
408,0.785844
406,0.79644
404,0.806793
402,0.817599
400,0.828493
398,0.839958
396,0.851599
394,0.863358
392,0.875325
390,0.887352
388,0.900099
386,0.912826
384,0.925409
382,0.946507
380,0.959479
378,0.972467
376,0.986634
374,1.002948
372,1.02055
370,1.034511
368,1.051729
366,1.068333
364,1.088775
362,1.103886
360,1.125554
358,1.140883
356,1.16168
354,1.180196
352,1.199856
350,1.222294
348,1.24148
346,1.260346
344,1.285538
342,1.305175
340,1.336316
338,1.358335
336,1.393087
334,1.425206
332,1.46423
330,1.512019
328,1.59532
326,1.790957
324,2.211427
322,2.938814
320,3.05987
318,3.537177
316,3.537198
314,3.458331
312,3.567619
310,3.583547
308,3.599992
306,3.600168
304,3.60024
302,3.568248
300,3.568105
298,3.552815
296,3.509866
294,3.509589
292,3.59932
290,3.445777
288,3.551336
286,3.566244
284,3.615416
282,3.521771
280,3.550629
278,3.550755
276,3.566054
274,3.508176
272,3.551168
270,3.633477
268,3.63378
266,3.582926
264,3.583098
262,3.692326
260,3.652956
258,3.735981
256,3.759534
254,3.73612
252,3.735968
250,3.672224
248,3.784328
246,3.759701
244,3.811156
242,3.760309
240,3.785481
238,3.84014
236,3.812496
234,3.715945
232,3.813431
230,3.81426
228,3.789149
226,3.74251
224,3.847137
222,3.820312
220,3.794365
218,3.82078
216,3.878981
214,3.911432
212,3.879992
210,3.850536
208,3.851576
206,3.85224
204,3.799559
202,3.752792
200,3.857405

File: 5 nf 15 uvvis.csv
700,0.290463
698,0.291571
696,0.292812
694,0.29403
692,0.295342
690,0.296617
688,0.297904
686,0.299224
684,0.300511
682,0.301995
680,0.303407
678,0.30482
676,0.306188
674,0.307426
672,0.308838
670,0.31007
668,0.31145
666,0.312718
664,0.31414
662,0.315633
660,0.316985
658,0.318447
656,0.319931
654,0.321391
652,0.323006
650,0.324528
648,0.326162
646,0.32759
644,0.329309
642,0.330848
640,0.332365
638,0.33399
636,0.335776
634,0.337395
632,0.339074
630,0.340776
628,0.3425
626,0.344263
624,0.346147
622,0.347901
620,0.349788
618,0.35157
616,0.353517
614,0.355471
612,0.357479
610,0.359326
608,0.361357
606,0.363378
604,0.365371
602,0.367385
600,0.369413
598,0.371508
596,0.373536
594,0.375684
592,0.37779
590,0.379975
588,0.382143
586,0.38443
584,0.386695
582,0.389009
580,0.391252
578,0.39373
576,0.396186
574,0.398707
572,0.401147
570,0.403763
568,0.406331
566,0.408897
564,0.411487
562,0.414262
560,0.41694
558,0.420058
556,0.423107
554,0.425875
552,0.428805
550,0.431691
548,0.434637
546,0.437682
544,0.440727
542,0.443928
540,0.447053
538,0.450209
536,0.453444
534,0.456673
532,0.460044
530,0.463517
528,0.466985
526,0.470445
524,0.474059
522,0.477536
520,0.481237
518,0.485089
516,0.488913
514,0.492784
512,0.496696
510,0.500753
508,0.50477
506,0.508918
504,0.513046
502,0.517387
500,0.521746
498,0.526262
496,0.530861
494,0.535429
492,0.540005
490,0.544824
488,0.549688
486,0.5546
484,0.55959
482,0.564703
480,0.569822
478,0.574993
476,0.580418
474,0.585839
472,0.591463
470,0.597103
468,0.602843
466,0.608681
464,0.614779
462,0.620883
460,0.627107
458,0.633423
456,0.640069
454,0.646722
452,0.653417
450,0.660394
448,0.667291
446,0.674379
444,0.681679
442,0.689204
440,0.696899
438,0.704557
436,0.712418
434,0.72037
432,0.728602
430,0.73712
428,0.745851
426,0.75482
424,0.763663
422,0.772879
420,0.78091
418,0.790259
416,0.799906
414,0.810052
412,0.820003
410,0.83029
408,0.840923
406,0.851655
404,0.862411
402,0.873532
400,0.884915
398,0.896709
396,0.908638
394,0.920919
392,0.933254
390,0.946013
388,0.959179
386,0.972601
384,0.988823
382,1.007829
380,1.018607
378,1.036426
376,1.051825
374,1.066249
372,1.083758
370,1.100689
368,1.11549
366,1.134668
364,1.154687
362,1.17276
360,1.192343
358,1.21095
356,1.231636
354,1.25148
352,1.271012
350,1.292855
348,1.314058
346,1.327638
344,1.355564
342,1.375119
340,1.399029
338,1.432226
336,1.460471
334,1.490333
332,1.541956
330,1.577977
328,1.701061
326,1.99094
324,2.570156
322,3.273998
320,3.390864
318,3.537177
316,3.458016
314,3.458331
312,3.552379
310,3.496397
308,3.653238
306,3.552744
304,3.552815
302,3.538285
300,3.523902
298,3.552815
296,3.509866
294,3.583375
292,3.567136
290,3.495464
288,3.536613
286,3.52204
284,3.481877
282,3.507982
280,3.494513
278,3.536032
276,3.494698
274,3.481847
272,3.508416
270,3.56653
268,3.53687
266,3.537168
264,3.652734
262,3.616606
260,3.672262
258,3.653007
256,3.713776
254,3.73612
252,3.672299
250,3.713617
248,3.736023
246,3.759701
244,3.784827
242,3.714552
240,3.785481
238,3.785782
236,3.786167
234,3.786526
232,3.813431
230,3.842289
228,3.815478
226,3.790815
224,3.792779
222,3.820312
220,3.820694
218,3.746146
216,3.911166
214,3.770103
212,3.795672
210,3.771355
208,3.823548
206,3.824211
204,3.774736
202,3.730516
200,3.803047

File: 6 nf 20 uvvis.csv
700,0.965198
698,0.966534
696,0.967967
694,0.96942
692,0.970784
690,0.972384
688,0.973872
686,0.975462
684,0.977169
682,0.978634
680,0.980191
678,0.981887
676,0.983273
674,0.984848
672,0.986265
670,0.987786
668,0.989184
666,0.990755
664,0.992345
662,0.993708
660,0.99531
658,0.996951
656,0.998452
654,1.000028
652,1.001796
650,1.003314
648,1.00507
646,1.006682
644,1.008409
642,1.010119
640,1.011719
638,1.013527
636,1.015217
634,1.016925
632,1.018753
630,1.020561
628,1.022407
626,1.024328
624,1.026266
622,1.028153
620,1.030035
618,1.031994
616,1.03411
614,1.036057
612,1.038172
610,1.040175
608,1.042148
606,1.044174
604,1.046126
602,1.048204
600,1.050116
598,1.052089
596,1.054055
594,1.055748
592,1.057533
590,1.059303
588,1.060822
586,1.062401
584,1.064005
582,1.065884
580,1.067976
578,1.070185
576,1.072543
574,1.07513
572,1.077541
570,1.080248
568,1.082872
566,1.085617
564,1.088455
562,1.091131
560,1.093869
558,1.097907
556,1.101287
554,1.104097
552,1.106993
550,1.109921
548,1.112977
546,1.115764
544,1.118956
542,1.122099
540,1.125176
538,1.128381
536,1.131431
534,1.134495
532,1.137772
530,1.141047
528,1.144426
526,1.147763
524,1.151064
522,1.154147
520,1.15758
518,1.16111
516,1.164607
514,1.168072
512,1.171508
510,1.174968
508,1.178628
506,1.182173
504,1.185674
502,1.189446
500,1.193058
498,1.197054
496,1.200687
494,1.204542
492,1.208716
490,1.212532
488,1.216703
486,1.221026
484,1.225185
482,1.229531
480,1.23379
478,1.238143
476,1.242578
474,1.247096
472,1.251636
470,1.256087
468,1.260839
466,1.265529
464,1.27033
462,1.275048
460,1.280224
458,1.28517
456,1.29029
454,1.295564
452,1.300857
450,1.306278
448,1.311748
446,1.317531
444,1.323228
442,1.328646
440,1.334329
438,1.340178
436,1.345846
434,1.351704
432,1.358218
430,1.364426
428,1.370464
426,1.376374
424,1.383476
422,1.390758
420,1.39697
418,1.403757
416,1.410687
414,1.417934
412,1.424975
410,1.43218
408,1.439747
406,1.447576
404,1.455129
402,1.462879
400,1.470736
398,1.478964
396,1.487393
394,1.495316
392,1.504365
390,1.51284
388,1.521968
386,1.530493
384,1.543422
382,1.558474
380,1.558297
378,1.563676
376,1.57375
374,1.580708
372,1.597407
370,1.60861
368,1.623258
366,1.636985
364,1.648687
362,1.651692
360,1.667643
358,1.687799
356,1.700132
354,1.704813
352,1.731308
350,1.743424
348,1.752501
346,1.760131
344,1.773629
342,1.794323
340,1.811148
338,1.852533
336,1.874735
334,1.91295
332,1.954013
330,1.982152
328,2.145708
326,2.416498
324,3.00988
322,3.423296
320,3.551715
318,3.457995
316,3.495805
314,3.423569
312,3.470709
310,3.496397
308,3.523604
306,3.509992
304,3.523851
302,3.524044
300,3.552865
298,3.496699
296,3.423951
294,3.496225
292,3.509144
290,3.495464
288,3.482255
286,3.469334
284,3.469287
282,3.36968
280,3.565869
278,3.444952
276,3.45691
274,3.469258
272,3.433782
270,3.495174
268,3.482512
266,3.522928
264,3.509312
262,3.552148
260,3.567526
258,3.496221
256,3.583442
254,3.5999
252,3.567564
250,3.616707
248,3.653049
246,3.653246
244,3.653548
242,3.617642
240,3.737176
238,3.694012
236,3.694396
234,3.694756
232,3.738797
230,3.763108
228,3.764326
226,3.765991
224,3.819108
222,3.793983
220,3.820694
218,3.848809
216,3.79466
214,3.911432
212,4.071878
210,3.912684
208,3.88154
206,3.882203
204,4.126918
202,3.885418
200,3.887368