Folder: GaN-AlGaN/adquisiciones/GaN uvvis/bajadas (part 2)

File: estab_post_340.txt
69.30322 0.0260038
71.36227 0.0260007
73.41409 0.0260004
75.47493 0.0260004
77.52791 0.0259997
79.59025 0.0259985
82.04516 0.0259971
84.09493 0.0259955
86.15044 0.0259865
88.20337 0.0259858
90.2529 0.0259855
92.3059 0.0259845
94.35939 0.0259832
96.41315 0.0259817
98.8656 0.0259791
100.9267 0.0259742
102.9783 0.0259716
105.0308 0.0259707
107.078 0.0259712
109.1758 0.0259703
111.2312 0.0259695
113.6872 0.0259678
115.7437 0.0259667
117.7994 0.0259574
119.8554 0.0259551
121.9087 0.025955
123.9656 0.0259534
126.0228 0.0259523
128.0798 0.0259513
130.544 0.0259486
132.5984 0.0259435
134.6528 0.0259393
136.7143 0.0259389
138.7718 0.0259377
140.8236 0.0259365
142.8744 0.0259347
145.3347 0.0259308
147.3874 0.0259265
149.4353 0.025924
151.4914 0.0259239
153.5477 0.0259266
155.6029 0.0259271
157.6548 0.0259274
159.7153 0.0259262
162.1707 0.0259257
164.2242 0.025923
166.2753 0.0259224
168.33 0.0259221
170.3829 0.0259221
172.4364 0.025919
174.4943 0.0259173
176.9452 0.0259159
179.0056 0.0259148
181.0572 0.0259085
183.1135 0.0259079
185.164 0.0259074
187.2139 0.025907
189.2688 0.0259068
191.3216 0.0259076
193.7714 0.0259073
195.83 0.0259031
197.8803 0.0258982
199.9379 0.0258982
201.9909 0.0258991
204.0455 0.0259004
206.0983 0.0259004
208.5617 0.0258999
210.6166 0.0258975
212.6725 0.0258896
214.7329 0.0258889
216.7948 0.0258911
218.8514 0.0258944
220.9059 0.0258948
222.9663 0.0258928
225.4237 0.0258918
227.4781 0.0258897
229.532 0.0258886
231.5835 0.0258877
233.6643 0.0258874
235.7114 0.0258854
237.7572 0.0258852
240.2076 0.0258854
242.2659 0.0258843
244.32 0.0258793
246.372 0.0258785
248.4222 0.0258786
250.4696 0.0258775
252.5178 0.0258753
254.5687 0.025874
257.0203 0.025872
259.065 0.0258701
261.1159 0.0258687
263.1617 0.0258685
265.212 0.0258687
267.2575 0.0258689
269.3025 0.0258713
271.7562 0.0258726
273.8039 0.0258716
275.851 0.0258656
277.903 0.0258641
279.9487 0.0258651
281.999 0.0258646
284.0462 0.0258648
286.0965 0.0258658
288.5495 0.0258658
290.5958 0.0258639
292.6495 0.0258592
294.6949 0.0258598
296.7458 0.0258606
298.7931 0.0258604
300.8457 0.0258602
303.2962 0.0258612
305.3408 0.0258597
307.3905 0.0258558
309.4348 0.025854
311.4783 0.0258542
313.5243 0.025854
315.572 0.0258516
317.6274 0.025849
320.0828 0.0258478
322.1309 0.0258466
324.18 0.0258464
326.228 0.0258468
328.2796 0.0258471
330.3298 0.0258468
332.3789 0.0258452
334.8243 0.0258432
336.872 0.0258412
338.9171 0.0258352
340.968 0.0258352
343.0116 0.0258356
345.057 0.025837
347.1063 0.0258379
349.1545 0.0258386
351.6047 0.0258389
353.6919 0.025839
355.7407 0.0258381
357.7876 0.0258401
359.8418 0.0258415
361.8896 0.0258423
363.9371 0.0258418
366.3864 0.0258388
368.4345 0.0258382
370.4848 0.0258371
372.5316 0.0258342
374.5786 0.0258342
376.6272 0.0258322
378.6734 0.0258319
380.7232 0.0258271
383.1724 0.0258262
385.2236 0.0258222
387.2727 0.0258191
389.3233 0.0258192
391.3688 0.0258202
393.4149 0.0258209
395.4625 0.0258216
397.9129 0.0258239
399.9615 0.0258239
402.0072 0.0258193
404.0516 0.0258186
406.097 0.0258195
408.1454 0.0258204
410.1916 0.0258213
412.2463 0.0258221
414.6964 0.0258217
416.7418 0.0258185
418.792 0.0258148
420.8359 0.0258156
422.8814 0.0258189
424.9322 0.0258194
426.9788 0.0258195
429.4314 0.0258194
431.4811 0.0258182
433.5284 0.0258125
435.5791 0.0258121
437.6263 0.0258129
439.6759 0.0258133
441.7223 0.0258128
443.7721 0.0258116
446.2251 0.0258095
448.2713 0.0258067
450.3175 0.0258082
452.3609 0.0258086
454.4054 0.0258105
456.4526 0.0258128
458.5044 0.0258136
460.9523 0.0258134
463.0029 0.0258117
465.0483 0.0258078
467.0912 0.0258078
469.1323 0.0258079
471.1801 0.0258074
473.2229 0.0258047
475.2678 0.0258038
477.7135 0.0258023
479.7591 0.0258016
481.8126 0.0258017
483.8583 0.0257994
485.9111 0.0258014
487.9581 0.0258016
490.0097 0.0258031
492.4571 0.0258037
494.5041 0.0258026
496.5505 0.0257935
498.5938 0.0257931
500.6449 0.0257936
502.6912 0.0257973
504.7429 0.0258013
506.7915 0.0258022
509.2451 0.0258022
511.2894 0.0258013
513.3393 0.0258008
515.3854 0.0257999
517.4293 0.0258008
519.4806 0.0257999
521.5285 0.0258006
523.9781 0.0257983
526.027 0.025798
528.0672 0.0257968
530.1157 0.0257953
532.1629 0.0257971
534.2156 0.0257959
536.2618 0.0257949
538.3095 0.0257932
540.7583 0.0257923
542.8051 0.025789
544.8499 0.0257861
546.9008 0.0257892
548.9484 0.0257913
550.9952 0.0257913
553.0411 0.0257909
555.4902 0.0257899
557.5348 0.0257888
559.5849 0.0257821
561.6276 0.0257821
563.678 0.0257843
565.7199 0.0257859
567.7644 0.0257874
569.817 0.0257882
572.266 0.0257882
574.3167 0.0257855
576.3654 0.0257829
578.4165 0.0257828
580.4649 0.0257828
582.5108 0.0257831
584.5592 0.0257843
587.0081 0.0257843
589.0546 0.0257835
591.1056 0.0257801
593.1556 0.025777
595.2012 0.0257779
597.2922 0.0257779
599.34 0.0257798
601.3884 0.0257801
603.8395 0.0257796
605.8871 0.0257745
607.9354 0.0257732
609.9877 0.0257731
612.034 0.0257751
614.081 0.0257758
616.1269 0.0257796
618.5783 0.0257799
620.6269 0.0257774
622.6699 0.0257726
624.7215 0.0257723
626.77 0.0257727
628.8178 0.0257727
630.8642 0.0257734
632.9112 0.0257734
635.3654 0.0257735
637.4178 0.0257725
639.4649 0.0257724
641.5149 0.0257735
643.5666 0.025774
645.6131 0.0257729
647.6583 0.0257718
650.112 0.0257711
652.1571 0.0257702
654.2079 0.0257636
656.2531 0.0257631
658.3002 0.0257635
660.3492 0.025764
662.3981 0.0257641
664.4478 0.0257647
666.8974 0.0257641
668.9444 0.025762
670.991 0.0257604
673.0392 0.0257618
675.086 0.0257628
677.1352 0.0257649
679.1829 0.0257654
681.6356 0.0257661
683.6862 0.0257645
685.7389 0.0257628
687.7866 0.0257593
689.8346 0.0257596
691.8796 0.0257587
693.9256 0.0257582
695.9738 0.0257573
698.4212 0.0257558
699.7878 0.0257547

File: estab_post_360.txt
69.31117 0.0259344
71.36892 0.0259347
73.42371 0.0259397
75.48631 0.0259408
77.53933 0.0259405
79.99616 0.0259394
82.05025 0.0259361
84.09981 0.0259285
86.15127 0.0259285
88.21019 0.0259292
90.26257 0.025929
92.31215 0.0259275
94.36319 0.025926
96.81967 0.0259231
98.87434 0.0259178
100.9298 0.0259162
102.9783 0.0259148
105.0295 0.0259143
107.0845 0.0259123
109.14 0.0259092
111.5944 0.0259089
113.6516 0.0259066
115.7082 0.0258992
117.7667 0.0258976
119.8182 0.0258984
121.8698 0.0258989
123.9248 0.0258991
125.9811 0.0258987
128.4427 0.025898
130.5016 0.0258928
132.5531 0.0258883
134.6053 0.025887
136.6547 0.0258872
138.7073 0.025887
140.7617 0.0258874
143.2209 0.0258865
145.2703 0.025883
147.3206 0.025878
149.3739 0.0258767
151.4326 0.0258761
153.4906 0.0258749
155.542 0.0258737
157.5999 0.0258719
160.0568 0.0258702
162.1118 0.0258682
164.1673 0.0258656
166.2196 0.025866
168.2699 0.025867
170.327 0.0258666
172.3789 0.0258655
174.8332 0.0258629
176.8875 0.0258601
178.9433 0.0258575
181.0018 0.0258564
183.0602 0.0258563
185.117 0.0258544
187.1731 0.0258528
189.2262 0.0258503
191.6844 0.0258484
193.7367 0.0258445
195.7917 0.0258409
197.8467 0.0258405
199.9033 0.02584
201.9556 0.0258404
204.0081 0.0258397
206.4639 0.0258394
208.5152 0.0258384
210.6077 0.0258315
212.6576 0.0258274
214.7119 0.0258274
216.7662 0.0258265
218.8201 0.0258274
220.8745 0.0258282
223.3255 0.0258287
225.3775 0.0258281
227.4354 0.025828
229.491 0.0258268
231.5459 0.0258265
233.6272 0.0258264
235.6792 0.0258256
238.1285 0.0258249
240.1774 0.025824
242.2265 0.0258205
244.2789 0.0258199
246.336 0.0258212
248.3871 0.0258217
250.4382 0.0258211
252.4846 0.0258205
254.9376 0.0258193
256.9908 0.0258161
259.0458 0.0258105
261.0937 0.0258082
263.143 0.0258082
265.1945 0.0258094
267.2457 0.02581
269.7022 0.0258106
271.7538 0.02581
273.7986 0.0258056
275.8432 0.025805
277.8953 0.0258064
279.9449 0.0258066
281.9975 0.0258068
284.0507 0.0258069
286.5032 0.0258066
288.5491 0.0258006
290.5967 0.0257986
292.6435 0.0257986
294.6854 0.0258005
296.7382 0.0258013
298.7865 0.0258013
301.2338 0.0258007
303.2787 0.0257997
305.3288 0.0257979
307.3747 0.0257967
309.4228 0.0257977
311.4675 0.025798
313.5136 0.0257989
315.5556 0.0257989
318.0072 0.0257984
320.0537 0.0257936
322.1023 0.0257873
324.1475 0.0257871
326.1945 0.0257872
328.2429 0.0257877
330.2897 0.0257891
332.7401 0.0257908
334.7899 0.0257906
336.8371 0.0257824
338.8849 0.0257824
340.9312 0.0257852
342.9785 0.0257855
345.0268 0.0257853
347.0732 0.0257844
349.5218 0.0257825
351.5704 0.0257777
353.6149 0.0257745
355.6635 0.0257742
357.712 0.0257738
359.7589 0.025772
361.8035 0.0257703
364.2573 0.0257691
366.3011 0.0257667
368.3454 0.0257649
370.3948 0.0257646
372.4421 0.0257652
374.4881 0.0257694
376.5365 0.0257705
378.5817 0.0257706
381.0367 0.0257685
383.089 0.0257676
385.1366 0.0257672
387.1823 0.0257672
389.2282 0.0257679
391.2769 0.0257694
393.3241 0.0257695
395.7699 0.0257704
397.8153 0.0257693
399.8642 0.0257637
401.9124 0.0257634
403.9621 0.0257651
406.0088 0.0257662
408.0553 0.0257659
410.1012 0.0257647
412.5527 0.0257634
414.5991 0.0257575
416.6436 0.0257541
418.6952 0.0257548
420.7419 0.0257553
422.7879 0.0257571
424.833 0.0257569
427.2863 0.0257554
429.3377 0.025753
431.3833 0.0257504
433.4301 0.0257497
435.4759 0.0257508
437.5213 0.0257519
439.5668 0.0257543
441.6137 0.0257559
444.0627 0.0257574
446.1076 0.0257586
448.156 0.0257543
450.2035 0.0257535
452.258 0.025754
454.3497 0.025753
456.4 0.0257527
458.8489 0.025753
460.9018 0.0257515
462.9442 0.0257509
464.9902 0.0257472
467.0391 0.0257472
469.0822 0.0257461
471.1264 0.0257448
473.1759 0.0257447
475.6319 0.0257442
477.6778 0.0257436
479.7256 0.0257385
481.7741 0.0257382
483.8233 0.0257382
485.875 0.0257392
487.9246 0.0257414
490.3737 0.0257419
492.4192 0.0257414
494.4705 0.0257405
496.5241 0.0257416
498.5755 0.0257422
500.6213 0.0257418
502.6727 0.0257412
504.7207 0.0257411
507.1711 0.0257401
509.2201 0.0257376
511.2752 0.0257359
513.3275 0.0257356
515.374 0.0257368
517.4178 0.025736
519.4636 0.0257359
521.9143 0.0257355
523.963 0.0257344
526.0072 0.0257296
528.0574 0.0257292
530.1029 0.0257293
532.1494 0.0257295
534.1952 0.0257296
536.2395 0.0257297
538.6879 0.0257303
540.7363 0.0257249
542.784 0.025723
544.8304 0.0257227
546.8799 0.0257224
548.9279 0.0257216
550.9809 0.0257201
553.4328 0.0257197
555.4811 0.0257191
557.5302 0.0257156
559.579 0.0257152
561.6256 0.0257155
563.6742 0.0257153
565.7241 0.0257151
567.7749 0.0257158
570.2255 0.0257161
572.2777 0.0257142
574.327 0.0257125
576.3708 0.0257167
578.4167 0.0257195
580.4679 0.0257198
582.5181 0.0257196
584.977 0.0257189
587.0302 0.0257172
589.0795 0.025716
591.1272 0.025716
593.1755 0.0257186
595.2198 0.0257184
597.2655 0.025719
599.3166 0.025719
601.7695 0.0257196
603.8154 0.0257189
605.8655 0.0257187
607.9158 0.0257169
609.9646 0.0257165
612.0093 0.025712
614.0577 0.0257116
616.5062 0.0257113
618.5501 0.0257108
620.5997 0.0257048
622.6538 0.0257048
624.7063 0.0257082
626.756 0.0257138
628.7988 0.0257145
630.8464 0.0257145
633.2943 0.0257127
635.3413 0.0257115
637.3895 0.0257108
639.4371 0.0257105
641.48 0.0257113
643.5306 0.0257109
645.5773 0.0257121
648.0278 0.0257121
650.0788 0.0257104
652.1266 0.025708
654.1766 0.0257075
656.2262 0.025708
658.2756 0.0257072
660.3254 0.0257044
662.3701 0.0257021
664.8177 0.0256988
666.8665 0.0257016
668.9155 0.0257014
670.9646 0.0257
673.0173 0.0257002
675.0687 0.0256999
677.1165 0.0257017
679.5659 0.0257028
681.6105 0.0257022
683.6608 0.0257005
685.7076 0.0257004
687.7534 0.0257011
689.7996 0.025701
691.8491 0.0257001
693.9005 0.0256988
696.3492 0.0256974
698.437 0.0256931
699.7999 0.0256899