Folder: GaN-AlGaN/adquisiciones/GaN uvvis/bajadas

File: decaimiento2.txt
34.96247 0.0260561
35.99222 0.0260476
37.02311 0.0260476
38.04816 0.0260476
39.07905 0.0260476
40.10806 0.0260476
41.17352 0.0260476
42.20353 0.0260476
43.23253 0.026045
44.25761 0.0260413
45.28416 0.0260405
46.31313 0.0260386
47.33496 0.0260376
48.76319 0.0260376
49.79215 0.0260368
50.82635 0.0260338
51.85637 0.0260237
52.88591 0.0260226
53.91763 0.0260212
54.95217 0.0260202
55.98042 0.0260214
57.00482 0.026022
58.03176 0.026021
59.0605 0.0260207
60.08488 0.0260205
61.1095 0.0260202
62.13635 0.026018
63.16295 0.0260166
64.59339 0.0260159
65.62144 0.0260144
66.65147 0.0260129
67.67788 0.0260078
68.70722 0.0260062
69.7377 0.0260055
70.76448 0.0260051
71.78784 0.0260051
72.81581 0.0260051
73.85 0.0260057
74.87936 0.0260057
75.90685 0.0260053
76.93969 0.026005
77.96788 0.0260048
78.99131 0.0260051
80.42164 0.0260051
81.45177 0.0260044
82.47579 0.0260038
83.50289 0.0259953
84.5331 0.0259953
85.56405 0.0259953
86.59121 0.0259926
87.61423 0.0259953
88.64161 0.0259956
89.66516 0.0259956
90.6887 0.0259945
91.7168 0.0259931
92.7458 0.0259908
93.77255 0.0259903
94.80127 0.0259903
96.23001 0.0259899
97.2569 0.0259893
98.2861 0.025988
99.31691 0.0259849
100.3457 0.0259849
101.3695 0.0259841
102.398 0.025984
103.4241 0.0259845
104.451 0.025984
105.4758 0.025984
106.5096 0.0259834
107.5421 0.0259828
108.5682 0.0259824
109.6023 0.0259824
110.6272 0.0259828
112.058 0.0259828
113.0864 0.0259828
114.1101 0.0259816
115.1365 0.0259801
116.1678 0.0259782
117.2267 0.0259777
118.2523 0.0259761
119.2766 0.0259761
120.3001 0.0259757
121.3224 0.0259741
122.348 0.0259733
123.3704 0.0259733
124.3917 0.0259729
125.4142 0.0259729
126.4341 0.025973
127.8622 0.0259731
128.8867 0.0259731
129.9142 0.0259724
130.9403 0.0259721
131.9658 0.0259722
132.9907 0.0259711
134.0157 0.0259701
135.039 0.0259704
136.0628 0.0259704
137.0863 0.0259701
138.1111 0.02597
139.1358 0.0259694
140.1605 0.0259689
141.1844 0.0259689
142.2055 0.0259681
143.6307 0.0259675
144.6554 0.0259655
145.6793 0.0259643
146.6997 0.0259612
147.7222 0.025961
148.7458 0.025961
149.7746 0.0259603
150.798 0.0259608
151.8232 0.0259611
152.8482 0.025961
153.874 0.0259611
154.8973 0.0259609
155.9188 0.0259616
156.9441 0.0259619
157.972 0.0259621
159.3994 0.0259619
160.4252 0.0259614
161.4521 0.0259605
162.4754 0.0259544
163.5019 0.0259538
164.5306 0.0259522
165.5533 0.0259522
166.5804 0.0259529
167.6053 0.0259535
168.628 0.0259537
169.6511 0.0259538
170.6775 0.0259541
171.7037 0.0259546
172.728 0.0259556
173.7509 0.0259556
175.1793 0.025955
176.2049 0.0259544
177.2284 0.0259542
178.2535 0.0259515
179.2765 0.0259515
180.2982 0.0259514
181.3236 0.0259506
182.3516 0.0259516
183.3764 0.0259519
184.3993 0.0259526
185.4225 0.0259528
186.4477 0.0259526
187.4692 0.025952
188.4933 0.0259514
189.5177 0.0259513
190.9477 0.0259504
191.9735 0.0259496
193.0 0.0259494
194.0231 0.0259445
195.0491 0.0259444
196.0732 0.0259443
197.0984 0.0259443
198.122 0.0259449
199.1459 0.025946
200.1696 0.025946
201.1979 0.0259457
202.2195 0.0259453
203.2408 0.0259438
204.2612 0.0259423
205.2871 0.0259417
206.7179 0.0259412
207.7418 0.0259401
208.7664 0.0259385
209.792 0.0259363
210.8139 0.0259357
211.8416 0.0259357
212.8687 0.0259356
213.8969 0.0259358
214.9203 0.0259367
215.9443 0.0259369
216.9706 0.0259378
217.9946 0.0259378
219.0152 0.0259372
220.0429 0.0259369
221.0647 0.0259361
222.4902 0.0259358
223.5137 0.0259356
224.5408 0.0259333
225.564 0.0259272
226.5858 0.0259261
227.615 0.0259261
228.6407 0.0259255
229.6673 0.0259261
230.6929 0.0259268
231.7193 0.0259274
232.7436 0.0259279
233.765 0.025928
234.7877 0.0259281
235.8096 0.0259288
236.837 0.0259288
238.2638 0.0259288
239.2872 0.0259283
240.3095 0.0259279
241.3359 0.0259228
242.3608 0.0259224
243.3857 0.0259221
244.4099 0.0259203
245.4364 0.0259219
246.4673 0.0259224
247.4971 0.0259231
248.5205 0.0259239
249.5466 0.0259242
250.5714 0.0259251
251.5954 0.0259261
252.6254 0.0259274
254.0522 0.0259277
255.0742 0.0259277
256.0991 0.0259265
257.1233 0.0259264
258.149 0.0259255
259.1753 0.0259222
260.1978 0.0259207
261.2269 0.025922
262.2517 0.0259215
263.2753 0.0259213
264.3001 0.0259213
265.3248 0.0259215
266.3499 0.0259221
267.3758 0.0259225
268.3996 0.0259234
269.8273 0.0259236
270.852 0.0259236
271.877 0.0259235
272.9021 0.0259194
273.9254 0.0259191
274.9472 0.0259191
275.9671 0.0259191
276.988 0.0259191
278.0121 0.0259188
279.0376 0.0259185
280.0639 0.0259187
281.0874 0.0259186
282.1128 0.0259186
283.1357 0.0259185
284.1611 0.0259187
285.6284 0.0259187
286.6545 0.0259187
287.6808 0.0259174
288.7036 0.0259142
289.7294 0.025914
290.7494 0.025914
291.7724 0.025914
292.8011 0.0259147
293.8276 0.0259156
294.8538 0.0259158
295.8784 0.0259156
296.9041 0.0259149
297.9288 0.0259127
298.9551 0.0259095
299.98 0.0259079
301.4071 0.0259065
302.4309 0.025906
303.4539 0.0259057
304.4792 0.0259008
305.5062 0.0259005
306.5339 0.0258994
307.5579 0.0258994
308.5881 0.0259
309.613 0.0259005
310.6369 0.0259006
311.6608 0.0259006
312.6831 0.0259001
313.7087 0.0259006
314.7316 0.0259007
315.7551 0.025901
317.1807 0.025901
318.2019 0.0259005
319.2255 0.0259007
320.2517 0.025901
321.2738 0.0259021
322.3 0.0259022
323.3243 0.0259022
324.3489 0.0259022
325.3735 0.0259029
326.3974 0.0259029
327.4239 0.0259024
328.4469 0.0259017
329.4729 0.0259003
330.5015 0.0259003
331.5249 0.0259002
332.9509 0.0259
333.9756 0.0259
335.003 0.0258986
336.0326 0.0258937
337.0571 0.0258937
338.0797 0.0258929
339.105 0.0258917
340.1307 0.025892
341.1546 0.0258923
342.1783 0.0258921
343.2053 0.0258917
344.2284 0.0258917
345.2527 0.0258918
346.2791 0.0258923
347.304 0.0258926
348.7299 0.0258928
349.7563 0.0258922
350.0971 0.0258928

File: decaimiento.txt
34.96742 0.0263899
36.00076 0.026365
37.02854 0.0263637
38.06187 0.0263612
39.08841 0.0263601
40.1193 0.0263599
41.1499 0.0263566
42.1804 0.0263499
43.20556 0.0263468
44.2291 0.0263456
45.25859 0.0263403
46.29021 0.0263338
47.32128 0.0263268
48.76075 0.0263235
49.78709 0.0263218
50.81611 0.0263164
51.84159 0.0262978
52.86935 0.0262966
53.89927 0.0262955
54.92504 0.0262943
55.95057 0.0262937
56.97757 0.0262925
58.00509 0.0262904
59.03333 0.026288
60.0632 0.0262862
61.08957 0.0262828
62.11762 0.0262794
63.1489 0.0262782
64.5805 0.0262745
65.61005 0.0262701
66.63875 0.0262648
67.67065 0.0262552
68.69909 0.0262532
69.72466 0.0262505
70.75123 0.0262481
71.7804 0.0262489
72.8064 0.0262469
73.82945 0.0262452
74.85402 0.0262434
75.88594 0.026242
76.91689 0.0262393
77.94281 0.0262377
78.97171 0.0262363
80.40063 0.0262344
81.42373 0.0262338
82.45586 0.0262322
83.48109 0.0262182
84.50941 0.0262165
85.5375 0.026215
86.56414 0.0262142
87.58986 0.0262142
88.61973 0.0262131
89.64259 0.0262113
90.66685 0.0262093
91.69121 0.0262063
92.71921 0.0262039
93.74883 0.0262028
94.77397 0.0261999
96.20075 0.0261995
97.22646 0.0261988
98.25296 0.0261971
99.27988 0.0261909
100.3096 0.0261905
101.3346 0.0261899
102.3621 0.0261891
103.3927 0.0261892
104.423 0.0261892
105.4467 0.0261889
106.4754 0.0261876
107.5015 0.0261818
108.5296 0.0261783
109.5577 0.0261783
110.5833 0.0261776
112.0146 0.0261764
113.0384 0.0261752
114.0679 0.0261748
115.1004 0.0261613
116.1273 0.0261584
117.1855 0.0261581
118.2122 0.0261571
119.2403 0.0261566
120.2614 0.0261558
121.2854 0.0261538
122.3123 0.0261536
123.336 0.0261538
124.3632 0.0261536
125.3889 0.026153
126.4171 0.0261525
127.8474 0.0261525
128.8746 0.0261505
129.8989 0.0261493
130.9253 0.0261373
131.9527 0.0261368
132.9741 0.0261364
134.0004 0.0261356
135.0288 0.0261356
136.0519 0.0261364
137.0756 0.0261369
138.1 0.0261376
139.1262 0.0261375
140.1517 0.0261371
141.172 0.0261371
142.1988 0.0261367
143.6257 0.026135
144.6484 0.0261316
145.6719 0.0261291
146.6952 0.0261202
147.7171 0.0261198
148.7426 0.0261188
149.7694 0.0261178
150.7935 0.0261178
151.8202 0.026114
152.8451 0.0261076
153.8672 0.026107
154.8932 0.0261062
155.9149 0.026107
156.944 0.0261074
157.968 0.0261076
159.3963 0.0261073
160.42 0.0261068
161.4436 0.0261058
162.4697 0.0260978
163.4925 0.026097
164.5182 0.0260958
165.544 0.0260955
166.5663 0.0260955
167.5938 0.026095
168.6161 0.0260947
169.6377 0.0260946
170.6639 0.0260946
171.689 0.0260936
172.7121 0.0260924
173.7367 0.0260922
175.1611 0.0260907
176.1851 0.0260886
177.2097 0.0260866
178.2334 0.0260826
179.255 0.0260815
180.2843 0.0260794
181.3094 0.0260776
182.3325 0.0260779
183.3585 0.026078
184.3832 0.026078
185.4084 0.026078
186.432 0.0260787
187.456 0.0260792
188.4834 0.0260797
189.5094 0.0260798
190.9349 0.0260798
191.9589 0.0260796
192.985 0.0260789
194.0082 0.0260674
195.0332 0.026065
196.0592 0.0260636
197.0843 0.0260635
198.1062 0.0260641
199.1303 0.0260639
200.1552 0.0260633
201.1822 0.0260633
202.2044 0.0260633
203.2289 0.0260636
204.2526 0.0260622
205.2791 0.0260621
206.7069 0.0260621
207.7337 0.0260618
208.7596 0.0260613
209.7831 0.0260559
210.8097 0.0260554
211.8338 0.0260538
212.8573 0.0260532
213.881 0.0260532
214.904 0.0260533
215.9271 0.026053
216.9519 0.026053
217.9784 0.0260512
219.008 0.0260511
220.0328 0.0260509
221.06 0.0260509
222.4876 0.0260506
223.5086 0.0260498
224.5317 0.026049
225.556 0.026046
226.5781 0.0260444
227.6065 0.0260437
228.6331 0.0260437
229.6574 0.0260449
230.6792 0.0260449
231.7018 0.0260447
232.7237 0.0260433
233.748 0.0260421
234.7704 0.0260409
235.7998 0.0260405
236.8249 0.0260404
238.2543 0.0260403
239.2774 0.0260395
240.3014 0.0260387
241.3241 0.0260328
242.3481 0.0260302
243.3716 0.0260295
244.3935 0.0260287
245.4175 0.0260287
246.4429 0.0260287
247.4659 0.0260277
248.4924 0.026026
249.514 0.0260256
250.537 0.026025
251.5632 0.0260238
252.5871 0.0260236
254.0142 0.026023
255.0405 0.0260227
256.0683 0.0260218
257.095 0.0260177
258.1203 0.0260177
259.1448 0.0260176
260.1695 0.0260176
261.1956 0.0260186
262.2191 0.0260217
263.2432 0.0260226
264.2683 0.0260231
265.2891 0.0260231
266.3126 0.0260223
267.3391 0.0260223
268.3628 0.0260226
269.798 0.0260222
270.8208 0.0260193
271.8451 0.0260187
272.8673 0.0260181
273.8892 0.0260157
274.9122 0.0260133
275.9395 0.0260131
276.9637 0.0260132
277.9876 0.0260131
279.01 0.0260121
280.0336 0.0260114
281.0551 0.026011
282.0829 0.0260109
283.1076 0.0260096
284.1298 0.0260089
285.556 0.026008
286.5804 0.0260057
287.6045 0.0260045
288.6259 0.0260003
289.6476 0.0259993
290.6723 0.0259985
291.6964 0.0259982
292.7222 0.0259991
293.7455 0.0259994
294.7716 0.0259993
295.7978 0.0259994
296.8218 0.0260002
297.8461 0.0260004
298.8694 0.0260004
299.8992 0.0260005
301.324 0.0260005
302.3482 0.0260004
303.3727 0.0259996
304.3992 0.0259971
305.424 0.0259971
306.4482 0.0259928
307.4745 0.0259917
308.4972 0.025993
309.5218 0.0259947
310.5431 0.0259947
311.5679 0.0259945
312.5916 0.025995
313.6136 0.0259953
314.6385 0.0259955
315.661 0.0259959
317.0846 0.0259954
318.1106 0.0259951
319.1377 0.0259926
320.1623 0.0259871
321.1865 0.025986
322.2082 0.0259849
323.2309 0.0259847
324.2543 0.0259847
325.2771 0.0259847
326.3001 0.0259839
327.3225 0.0259831
328.3447 0.0259831
329.3692 0.0259826
330.3953 0.0259826
331.4174 0.0259828
332.8412 0.0259828
333.8636 0.0259828
334.8886 0.0259827
335.9107 0.0259766
336.9373 0.0259766
337.9655 0.0259766
338.9867 0.0259766
340.0085 0.0259785
341.0338 0.0259801
342.0588 0.0259821
343.0843 0.0259825
344.1077 0.0259828
345.1294 0.0259822
346.157 0.0259813
347.1795 0.025982
348.6058 0.0259801
349.6308 0.0259792
349.9732 0.025979

File: Eestab_post_320.txt
69.30937 0.0261959
71.37175 0.0261946
73.42746 0.0261922
75.47603 0.0261893
77.53177 0.0261854
79.99229 0.0261793
82.04586 0.0261756
84.09428 0.0261581
86.15661 0.0261554
88.22377 0.0261545
90.27761 0.0261528
92.33752 0.0261477
94.39249 0.0261459
96.8512 0.0261429
98.90541 0.0261341
100.9743 0.0261254
103.0299 0.0261247
105.0873 0.0261243
107.1367 0.0261216
109.1966 0.0261189
111.6591 0.0261171
113.7083 0.0261137
115.7717 0.0261032
117.8246 0.0261012
119.8755 0.0261011
121.9318 0.0260992
123.9888 0.0260926
126.0512 0.0260923
128.5158 0.0260914
130.57 0.0260875
132.6308 0.0260834
134.6943 0.0260822
136.7528 0.0260811
138.808 0.0260765
140.8618 0.0260743
143.3161 0.0260713
145.3696 0.0260676
147.4312 0.0260553
149.4883 0.0260544
151.5439 0.0260554
153.605 0.0260554
155.6622 0.0260528
157.7226 0.0260505
160.1805 0.0260485
162.2283 0.0260433
164.2817 0.0260384
166.339 0.0260382
168.3985 0.0260382
170.4552 0.0260377
172.5074 0.0260355
174.964 0.0260314
177.0152 0.0260301
179.0714 0.0260203
181.1247 0.026019
183.1736 0.026019
185.2314 0.0260179
187.2855 0.0260168
189.3354 0.0260132
191.7937 0.02601
193.8433 0.0260072
195.8947 0.0260052
197.9433 0.0260056
199.9936 0.0260058
202.0457 0.0260053
204.0965 0.0260042
206.5525 0.026004
208.6018 0.0260034
210.6574 0.0259977
212.7171 0.0259932
214.7753 0.0259951
216.8345 0.0259946
218.8893 0.0259931
220.9422 0.0259925
223.4031 0.0259895
225.4543 0.0259856
227.5089 0.0259836
229.5638 0.0259829
231.6176 0.0259826
233.6997 0.0259812
235.7499 0.0259806
238.1955 0.0259807
240.2419 0.0259794
242.2946 0.0259714
244.3409 0.0259691
246.3914 0.0259682
248.4418 0.0259672
250.4895 0.0259667
252.5385 0.0259663
254.9902 0.0259656
257.0452 0.0259629
259.0936 0.0259614
261.141 0.0259599
263.1887 0.0259596
265.2407 0.0259583
267.2911 0.0259574
269.7446 0.0259571
271.7891 0.0259546
273.8328 0.0259448
275.8811 0.0259445
277.9335 0.0259466
279.9844 0.0259469
282.0309 0.0259462
284.0782 0.0259404
286.5338 0.0259399
288.5836 0.025939
290.6375 0.0259392
292.6836 0.0259388
294.734 0.0259384
296.7804 0.0259376
298.8292 0.0259383
301.2807 0.025938
303.3292 0.0259365
305.3816 0.0259319
307.4368 0.0259315
309.4851 0.0259322
311.5319 0.0259351
313.5834 0.0259358
315.632 0.0259368
318.0828 0.0259355
320.1295 0.0259322
322.1753 0.0259289
324.2245 0.0259279
326.2755 0.0259283
328.3237 0.0259279
330.3804 0.025927
332.8342 0.025927
334.8843 0.0259259
336.9315 0.0259234
338.9797 0.0259233
341.0303 0.0259231
343.0797 0.0259225
345.1239 0.0259217
347.172 0.0259218
349.6212 0.0259202
351.6731 0.025914
353.7182 0.025911
355.7644 0.0259119
357.8156 0.025913
359.867 0.0259131
361.916 0.0259133
364.3671 0.0259134
366.4197 0.025913
368.4648 0.0259078
370.5119 0.0259057
372.56 0.0259069
374.6042 0.0259073
376.6486 0.0259068
378.6957 0.0259068
381.1445 0.0259049
383.1873 0.0259017
385.2334 0.0258977
387.2836 0.0258981
389.3335 0.0258992
391.3859 0.0259007
393.4332 0.0259016
395.8836 0.0259013
397.9331 0.0258987
399.9831 0.0258921
402.0303 0.0258906
404.0808 0.0258907
406.1256 0.025891
408.1732 0.0258933
410.2175 0.0258944
412.6667 0.025895
414.7122 0.0258908
416.7583 0.0258879
418.804 0.0258863
420.849 0.0258868
422.8936 0.0258846
424.9415 0.0258849
427.3936 0.0258849
429.4404 0.0258849
431.488 0.0258815
433.5355 0.0258807
435.5873 0.0258831
437.6342 0.0258843
439.6819 0.0258856
441.7263 0.0258852
444.1775 0.0258854
446.2239 0.0258834
448.2725 0.0258788
450.3203 0.0258792
452.3692 0.0258798
454.4154 0.0258797
456.4625 0.0258794
458.91 0.0258769
460.9558 0.025872
463.005 0.025872
465.0515 0.0258722
467.1076 0.025873
469.1534 0.0258733
471.1996 0.0258726
473.2458 0.0258698
475.6968 0.0258673
477.7415 0.0258663
479.787 0.0258644
481.8359 0.0258647
483.8852 0.0258655
485.933 0.0258655
487.9779 0.0258663
490.428 0.025866
492.472 0.0258648
494.52 0.02586
496.5705 0.0258592
498.6167 0.0258596
500.6655 0.0258597
502.7129 0.0258597
504.7596 0.0258585
507.2098 0.0258549
509.2615 0.025854
511.3073 0.0258554
513.3509 0.0258555
515.4046 0.0258555
517.457 0.0258556
519.508 0.0258543
521.9569 0.0258531
524.0004 0.0258522
526.046 0.025847
528.0992 0.0258465
530.1538 0.0258491
532.2035 0.0258503
534.2494 0.025852
536.2983 0.0258536
538.7512 0.0258537
540.7996 0.0258514
542.8431 0.0258487
544.8912 0.0258497
546.9396 0.0258511
548.9874 0.0258507
551.0404 0.025851
553.4876 0.0258508
555.5409 0.0258493
557.5895 0.0258443
559.6395 0.0258431
561.6837 0.0258438
563.7307 0.0258455
565.7768 0.0258453
567.8224 0.0258459
570.276 0.0258453
572.3217 0.0258425
574.3746 0.0258386
576.4176 0.0258386
578.4653 0.0258387
580.5095 0.0258394
582.5579 0.0258404
585.0116 0.0258409
587.0588 0.0258402
589.104 0.0258344
591.1502 0.0258343
593.1984 0.0258351
595.2491 0.0258353
597.2933 0.0258345
599.3403 0.0258335
601.786 0.0258327
603.8355 0.0258314
605.8836 0.0258313
607.9343 0.0258309
609.985 0.0258306
612.0326 0.0258308
614.0793 0.0258315
616.5299 0.0258323
618.5763 0.0258311
620.6249 0.0258233
622.6735 0.0258223
624.7229 0.0258223
626.7686 0.0258225
628.8138 0.0258233
630.8618 0.0258241
633.3138 0.0258238
635.3633 0.0258208
637.4099 0.0258194
639.4563 0.0258181
641.5046 0.0258179
643.553 0.0258179
645.6013 0.0258186
648.0531 0.0258201
650.1006 0.02582
652.1476 0.0258145
654.1959 0.0258142
656.2435 0.0258145
658.2906 0.0258156
660.3366 0.0258156
662.3841 0.0258152
664.8373 0.0258125
666.8873 0.0258082
668.9375 0.0258079
670.9873 0.0258084
673.0357 0.0258092
675.0782 0.0258102
677.1243 0.0258107
679.572 0.0258106
681.62 0.025808
683.672 0.0258071
685.7226 0.0258067
687.7695 0.0258082
689.8197 0.0258095
691.8702 0.0258101
693.9166 0.0258112
696.3685 0.0258115
698.4136 0.0258068
699.7844 0.0258009

File: estab_post_300.txt
69.35845 0.0262464
71.41383 0.0262431
73.47147 0.0262376
75.52722 0.0262333
77.57697 0.0262305
80.03149 0.0262275
82.08775 0.0262199
84.15332 0.0262081
86.20904 0.0262063
88.25835 0.0262062
90.31291 0.0262031
92.36888 0.0262012
94.41924 0.0261978
96.87828 0.0261903
98.9362 0.0261829
100.9973 0.0261742
103.0481 0.0261721
105.1026 0.0261707
107.1572 0.0261682
109.2158 0.0261639
111.6726 0.0261621
113.7245 0.0261589
115.7774 0.0261509
117.8366 0.0261505
119.8918 0.0261503
121.9526 0.0261444
124.0044 0.0261397
126.0577 0.026139
128.5096 0.0261386
130.5594 0.0261325
132.615 0.0261261
134.6756 0.026125
136.7268 0.0261238
138.7806 0.0261206
140.8372 0.0261182
143.2956 0.0261079
145.3441 0.0261008
147.4005 0.0260882
149.4552 0.0260882
151.5098 0.026092
153.5668 0.0260933
155.6209 0.0260938
157.6734 0.0260946
160.1289 0.0260941
162.1819 0.0260903
164.2336 0.0260828
166.2865 0.0260822
168.3364 0.026081
170.3904 0.0260802
172.439 0.0260776
174.8958 0.0260737
176.9432 0.0260719
178.9986 0.0260677
181.0515 0.0260653
183.1086 0.0260653
185.1643 0.0260657
187.2211 0.026065
189.276 0.0260638
191.7318 0.0260613
193.7796 0.0260539
195.8353 0.0260479
197.8865 0.0260479
199.9419 0.0260477
201.9906 0.0260452
204.0445 0.0260452
206.4983 0.0260438
208.5557 0.0260431
210.6122 0.0260386
212.665 0.0260364
214.719 0.0260392
216.7671 0.0260397
218.8266 0.0260391
220.8798 0.0260369
223.335 0.0260323
225.386 0.0260234
227.4361 0.0260173
229.4863 0.0260159
231.5432 0.0260181
233.6221 0.0260222
235.6768 0.0260232
238.1316 0.0260232
240.181 0.026021
242.2257 0.0260105
244.2775 0.0260051
246.3286 0.0260057
248.3785 0.026005
250.4268 0.0260049
252.4796 0.0260051
254.9274 0.026005
256.9764 0.0260029
259.0206 0.0260007
261.0693 0.026
263.1186 0.0259988
265.1671 0.0259966
267.2218 0.0259955
269.6737 0.0259956
271.7303 0.0259955
273.7878 0.0259895
275.8411 0.0259879
277.8877 0.0259871
279.9422 0.0259869
281.9905 0.0259864
284.0348 0.0259853
286.4872 0.025983
288.5421 0.0259803
290.5915 0.0259803
292.6414 0.0259817
294.6914 0.0259832
296.7402 0.0259824
298.7878 0.0259788
301.2352 0.0259773
303.2791 0.0259742
305.3245 0.0259748
307.3778 0.0259749
309.4245 0.0259764
311.4679 0.0259765
313.5581 0.0259753
315.6104 0.0259753
318.0641 0.025973
320.1216 0.0259719
322.1745 0.025969
324.2192 0.0259694
326.2665 0.0259708
328.3158 0.0259715
330.3612 0.0259711
332.8143 0.0259694
334.8661 0.0259644
336.9091 0.0259581
338.9603 0.0259576
341.0075 0.0259587
343.0543 0.0259601
345.1035 0.0259607
347.1547 0.0259617
349.603 0.0259607
351.6549 0.0259538
353.7057 0.0259516
355.7494 0.0259519
357.7991 0.0259534
359.8458 0.0259534
361.9001 0.0259534
364.351 0.0259541
366.3996 0.0259533
368.449 0.0259517
370.5014 0.0259509
372.5523 0.0259514
374.6036 0.0259507
376.6482 0.025948
378.6991 0.025948
381.1502 0.0259479
383.1977 0.0259433
385.2471 0.0259423
387.2941 0.0259419
389.3428 0.0259409
391.3931 0.0259388
393.4404 0.0259396
395.8918 0.0259413
397.9394 0.0259413
399.9858 0.0259363
402.0287 0.0259354
404.0782 0.0259354
406.1247 0.0259348
408.1702 0.0259335
410.2182 0.0259329
412.6666 0.0259309
414.7164 0.0259269
416.7701 0.0259173
418.8195 0.0259149
420.8647 0.0259158
422.9097 0.0259221
424.9604 0.0259266
427.4114 0.025927
429.459 0.0259238
431.504 0.0259177
433.5523 0.0259177
435.5968 0.0259204
437.6436 0.0259207
439.6915 0.0259186
441.7354 0.0259171
444.1888 0.0259162
446.235 0.0259142
448.282 0.0259137
450.3325 0.0259137
452.3774 0.0259142
454.4218 0.0259163
456.4693 0.0259166
458.9178 0.0259172
460.9636 0.0259156
463.0109 0.0259132
465.0585 0.0259119
467.1052 0.0259118
469.156 0.0259107
471.2022 0.0259078
473.2494 0.0259069
475.7014 0.0259067
477.747 0.0259059
479.796 0.0259054
481.8392 0.0259051
483.8904 0.0259049
485.9339 0.0259048
487.9826 0.025904
490.4355 0.0259029
492.4814 0.0259018
494.5301 0.0258945
496.5768 0.0258943
498.624 0.0258954
500.669 0.0258956
502.7192 0.025897
504.7638 0.0258964
507.2147 0.0258957
509.2594 0.0258943
511.3076 0.0258912
513.3564 0.0258917
515.4021 0.0258944
517.4526 0.0258955
519.4993 0.0258951
521.9483 0.0258926
523.9965 0.0258907
526.0505 0.0258881
528.1036 0.0258871
530.1523 0.0258893
532.1996 0.0258905
534.2466 0.0258901
536.2978 0.0258896
538.7451 0.0258884
540.7945 0.0258839
542.8476 0.0258784
544.8974 0.025879
546.9505 0.0258798
548.9995 0.025884
551.0505 0.025885
553.4981 0.0258827
555.544 0.0258789
557.6306 0.0258775
559.6755 0.0258774
561.7215 0.0258786
563.7739 0.0258798
565.8194 0.0258835
567.8673 0.0258862
570.3192 0.0258866
572.3634 0.0258835
574.4137 0.0258816
576.4621 0.0258833
578.5121 0.0258841
580.5581 0.0258847
582.6078 0.0258844
585.0624 0.0258834
587.106 0.0258795
589.1549 0.0258713
591.2054 0.0258713
593.2506 0.0258731
595.2963 0.0258744
597.3459 0.0258751
599.3904 0.0258766
601.8382 0.0258775
603.8843 0.0258752
605.9302 0.0258731
607.9781 0.0258738
610.0236 0.0258753
612.0658 0.0258765
614.1156 0.0258784
616.5694 0.025879
618.62 0.0258778
620.6711 0.0258743
622.7203 0.0258738
624.7702 0.0258747
626.8191 0.0258752
628.8666 0.0258754
630.9156 0.0258754
633.3661 0.0258747
635.4156 0.0258705
637.4644 0.0258688
639.5141 0.0258705
641.5624 0.0258713
643.6065 0.025871
645.656 0.0258686
648.1028 0.0258685
650.1553 0.0258664
652.2048 0.0258648
654.2582 0.0258645
656.3054 0.0258648
658.3516 0.0258646
660.4024 0.0258647
662.4438 0.025864
664.8952 0.025864
666.9458 0.0258601
668.9974 0.0258576
671.0537 0.0258581
673.1059 0.0258586
675.1545 0.0258581
677.2015 0.0258577
679.651 0.0258584
681.6984 0.0258576
683.7469 0.0258564
685.7948 0.0258562
687.8418 0.0258575
689.8912 0.0258586
691.9367 0.0258588
693.9865 0.0258591
696.4381 0.0258586
698.4862 0.0258531
699.8529 0.0258504