Folder: GaN-AlGaN/adquisiciones/GaN uvvis/subidas

File: 280.txt
34.9881 0.025874
36.02503 0.0258753
37.0538 0.0258766
38.08319 0.0258784
39.10862 0.0258784
40.13377 0.0258792
41.15956 0.0258795
42.19081 0.0258795
43.22193 0.0258794
44.25435 0.0258792
45.2854 0.0258787
46.3143 0.0258782
47.34255 0.0258782
48.7779 0.025878
49.80449 0.0258772
50.83051 0.0258767
51.85642 0.0258717
52.88263 0.0258707
53.91689 0.0258683
54.94506 0.0258678
55.97178 0.0258682
56.99878 0.025869
58.02318 0.0258701
59.05512 0.0258701
60.07946 0.0258717
61.10711 0.0258726
62.13679 0.025873
63.16224 0.0258735
64.59558 0.0258744
65.62785 0.0258766
66.65104 0.0258915
67.68018 0.0259284
68.70727 0.0259488
69.73677 0.0259519
70.76235 0.0259879
71.79377 0.0260266
72.81991 0.0260615
73.84799 0.0260992
74.87377 0.0261297
75.90059 0.0261536
76.92821 0.0261742
77.95741 0.0261952
78.98698 0.0262158
80.41914 0.0262307
81.44567 0.0262389
82.47304 0.0262499
83.50248 0.0262616
84.52677 0.0262677
85.55531 0.0262797
86.58241 0.0262906
87.60755 0.0262968
88.63727 0.026306
89.65992 0.0263107
90.68771 0.0263122
91.71287 0.0263164
92.73734 0.0263207
93.76166 0.0263247
94.79214 0.0263316
96.21813 0.0263321
97.24412 0.0263331
98.27156 0.026336
99.30025 0.0263393
100.3293 0.0263411
101.358 0.0263424
102.385 0.0263438
103.4114 0.0263498
104.4398 0.0263556
105.4695 0.0263574
106.4978 0.0263588
107.5275 0.0263645
108.5503 0.0263666
109.5766 0.0263694
110.5999 0.0263733
112.0307 0.0263737
113.0595 0.0263743
114.0867 0.026375
115.1169 0.0263764
116.1438 0.0263779
117.1972 0.0263784
118.2234 0.0263818
119.248 0.0263872
120.27 0.0263904
121.2974 0.0263926
122.3218 0.0263928
123.3476 0.0263932
124.3705 0.0263929
125.3936 0.0263934
126.419 0.0263942
127.8482 0.0263944
128.8729 0.0263948
129.8969 0.0263952
130.9221 0.0263956
131.9484 0.026396
132.9739 0.0263959
133.998 0.0263959
135.0256 0.0263967
136.0507 0.0263973
137.0732 0.0263985
138.0969 0.0264009
139.1201 0.0264043
140.1439 0.0264054
141.1683 0.0264064
142.1901 0.0264067
143.6167 0.0264069
144.6433 0.0264069
145.671 0.0264065
146.694 0.0264061
147.7187 0.0264056
148.741 0.0264061
149.7641 0.0264061
150.7863 0.0264082
151.8078 0.0264096
152.8342 0.0264105
153.8575 0.0264114
154.8797 0.0264125
155.9032 0.0264129
156.9305 0.0264159
157.9529 0.0264197
159.3795 0.0264198
160.4047 0.0264198
161.4305 0.0264202
162.4555 0.0264209
163.4812 0.0264216
164.5062 0.0264231
165.5318 0.0264239
166.5562 0.0264253
167.5836 0.0264277
168.6071 0.02643
169.6336 0.0264312
170.6557 0.0264313
171.6783 0.0264313
172.7035 0.0264323
173.732 0.0264325
175.1613 0.0264328
176.1836 0.0264314
177.2074 0.0264312
178.2303 0.0264333
179.2528 0.0264353
180.2764 0.0264346
181.3018 0.0264322
182.3281 0.0264337
183.3541 0.0264352
184.3764 0.0264327
185.4016 0.0264325
186.4248 0.0264325
187.446 0.026432
188.474 0.0264322
189.5003 0.0264322
190.9254 0.0264321
191.9499 0.0264317
192.9714 0.0264311
193.9946 0.0264289
195.0184 0.0264289
196.0446 0.0264289
197.0758 0.0264289
198.0976 0.0264321
199.123 0.026435
200.1483 0.0264359
201.1757 0.0264373
202.199 0.0264379
203.224 0.0264388
204.2462 0.0264395
205.2739 0.0264446
206.699 0.0264446
207.7209 0.0264446
208.7442 0.0264452
209.7697 0.0264448
210.7925 0.0264462
211.8204 0.0264465
212.8503 0.0264469
213.8743 0.0264478
214.9035 0.0264515
215.9314 0.0264522
216.9553 0.0264529
217.9799 0.0264532
219.0053 0.0264535
220.0288 0.0264532
221.0569 0.0264533
222.4826 0.0264533
223.5117 0.0264526
224.5376 0.026452
225.5641 0.0264511
226.5922 0.0264509
227.6169 0.0264513
228.6429 0.0264519
229.6656 0.026454
230.6918 0.0264566
231.7219 0.0264569
232.746 0.0264573
233.7734 0.0264576
234.7972 0.0264573
235.8203 0.026457
236.8465 0.026457
238.2725 0.0264567
239.2984 0.0264565
240.3253 0.0264565
241.3473 0.0264562
242.3746 0.0264573
243.401 0.0264567
244.4321 0.0264557
245.4577 0.0264562
246.4826 0.0264564
247.5073 0.026457
248.5309 0.0264576
249.5546 0.0264576
250.5808 0.0264594
251.6039 0.0264601
252.6329 0.0264603
254.064 0.0264603
255.0871 0.0264601
256.1125 0.0264588
257.1766 0.0264598
258.1989 0.0264598
259.2244 0.0264618
260.2474 0.0264618
261.2714 0.0264637
262.296 0.0264643
263.3198 0.0264644
264.3434 0.0264643
265.3673 0.0264647
266.3914 0.0264652
267.4144 0.0264654
268.437 0.0264658
269.8686 0.0264655
270.8907 0.0264649
271.9138 0.0264648
272.9409 0.0264632
273.9666 0.0264632
274.9896 0.0264639
276.0132 0.0264634
277.0343 0.0264646
278.0565 0.0264656
279.0838 0.0264667
280.1079 0.0264678
281.1348 0.0264681
282.1594 0.0264685
283.1832 0.0264686
284.2089 0.0264686
285.6406 0.0264685
286.667 0.026468
287.6923 0.026468
288.7194 0.0264679
289.743 0.026468
290.764 0.026468
291.7878 0.02647
292.8106 0.0264711
293.8365 0.0264717
294.8618 0.0264727
295.8852 0.026474
296.9098 0.0264757
297.9345 0.026477
298.9568 0.026477
299.9796 0.026477
301.407 0.026477
302.4271 0.0264764
303.4501 0.0264756
304.4721 0.0264741
305.4972 0.0264728
306.5247 0.0264728
307.5474 0.0264728
308.5733 0.026474
309.5965 0.0264759
310.6232 0.0264768
311.6442 0.0264775
312.6674 0.0264778
313.6949 0.0264779
314.7176 0.026478
315.7401 0.026478
317.1678 0.0264777
318.1857 0.0264772
319.2104 0.0264767
320.233 0.0264764
321.2567 0.0264765
322.2799 0.0264765
323.3016 0.0264765
324.3237 0.0264777
325.3453 0.0264778
326.371 0.0264779
327.3942 0.0264783
328.4153 0.0264794
329.439 0.0264794
330.4644 0.0264794
331.4858 0.0264794
332.9121 0.02648
333.9356 0.0264809
334.959 0.0264814
335.9807 0.0264814
337.0048 0.0264804
338.0319 0.0264798
339.0555 0.0264798
340.0805 0.0264804
341.1036 0.0264801
342.1269 0.0264803
343.1525 0.0264818
344.1781 0.0264827
345.2025 0.0264848
346.2276 0.0264852
347.251 0.0264853
348.6754 0.0264853
349.7009 0.0264852
350.043 0.0264852

File: 300.txt
34.97079 0.0259454
35.99843 0.0259367
37.0308 0.0259365
38.05869 0.0259365
39.08719 0.0259365
40.11758 0.0259371
41.14159 0.0259371
42.16934 0.0259371
43.20054 0.0259376
44.22741 0.0259362
45.25249 0.0259362
46.28068 0.025936
47.30883 0.0259371
48.7442 0.0259371
49.77119 0.0259371
50.79935 0.025936
51.82956 0.0259277
52.85413 0.0259265
53.87982 0.0259255
54.90579 0.0259254
55.93297 0.0259254
56.96315 0.0259252
57.99218 0.0259249
59.02248 0.0259242
60.04832 0.0259239
61.07834 0.0259226
62.1077 0.025921
63.13762 0.0259205
64.56752 0.0259192
65.59703 0.0259181
66.62304 0.0259165
67.64959 0.0259084
68.67562 0.0259074
69.70319 0.0259074
70.7306 0.0259072
71.75765 0.0259072
72.7867 0.025907
73.81174 0.025907
74.83757 0.0259078
75.86678 0.0259084
76.89305 0.0259084
77.91965 0.0259093
78.95277 0.0259169
80.3845 0.0259466
81.41687 0.025984
82.44726 0.0260231
83.48009 0.0260441
84.51216 0.0260802
85.53984 0.0261074
86.57011 0.0261322
87.59969 0.0261445
88.63183 0.0261637
89.66126 0.0261871
90.69161 0.0262018
91.71753 0.0262182
92.74154 0.0262287
93.76937 0.0262428
94.79667 0.0262514
96.2244 0.0262568
97.25433 0.0262622
98.2816 0.0262667
99.31011 0.0262716
100.3416 0.0262764
101.3674 0.0262867
102.3956 0.0262908
103.4229 0.026299
104.4485 0.0263052
105.4766 0.0263117
106.5089 0.0263172
107.5362 0.0263194
108.5627 0.0263251
109.5902 0.0263269
110.6121 0.0263308
112.0388 0.0263315
113.0675 0.0263315
114.0943 0.026332
115.119 0.026334
116.1477 0.0263344
117.2015 0.0263351
118.2279 0.0263376
119.2518 0.026339
120.2752 0.0263483
121.2992 0.0263493
122.3222 0.0263502
123.344 0.0263514
124.3685 0.0263522
125.3918 0.026354
126.4151 0.0263566
127.841 0.0263569
128.8615 0.0263569
129.8859 0.0263583
130.9065 0.026359
131.9335 0.0263591
132.9575 0.0263593
133.9836 0.0263599
135.0093 0.0263646
136.0325 0.0263688
137.0733 0.0263701
138.0964 0.0263706
139.1186 0.0263711
140.1422 0.0263731
141.1634 0.0263744
142.1883 0.0263748
143.6157 0.0263744
144.6371 0.0263737
145.6608 0.0263743
146.683 0.0263727
147.7066 0.0263712
148.7315 0.0263703
149.7526 0.0263683
150.7767 0.0263683
151.7989 0.0263683
152.8234 0.0263683
153.8476 0.0263688
154.8743 0.0263688
155.8964 0.0263703
156.9218 0.0263732
157.9462 0.0263761
159.3761 0.0263774
160.3975 0.0263786
161.4188 0.0263795
162.4423 0.0263797
163.4667 0.0263803
164.4916 0.0263796
165.5135 0.0263789
166.5383 0.0263795
167.5594 0.0263794
168.5822 0.0263798
169.6071 0.0263798
170.6332 0.02638
171.6575 0.026384
172.6799 0.0263888
173.7068 0.0263912
175.1316 0.0263914
176.1555 0.0263914
177.1797 0.026391
178.2028 0.0263889
179.2284 0.0263889
180.2535 0.0263892
181.2762 0.0263892
182.3023 0.0263903
183.3252 0.0263909
184.3495 0.0263926
185.3732 0.0263944
186.3985 0.0263968
187.4225 0.0263976
188.4462 0.0263982
189.4702 0.0263983
190.896 0.0263983
191.919 0.0263982
192.9421 0.0263969
193.9668 0.0263963
194.9901 0.0263953
196.0132 0.0263943
197.0397 0.0263943
198.0658 0.0263955
199.0895 0.0263959
200.1118 0.0263951
201.136 0.0263951
202.1612 0.0263958
203.1866 0.0263963
204.2112 0.0263969
205.2374 0.0263981
206.6647 0.0263991
207.6913 0.0263991
208.7117 0.0263988
209.7348 0.0263974
210.7586 0.0263971
211.7824 0.0263971
212.8084 0.0263971
213.8353 0.0263985
214.8591 0.026404
215.8833 0.0264057
216.9041 0.026406
217.9306 0.026406
218.9553 0.0264057
219.9817 0.0264055
221.0058 0.0264055
222.4362 0.0264053
223.4564 0.0264053
224.4801 0.0264049
225.5021 0.0263968
226.5261 0.0263968
227.5506 0.0263964
228.5756 0.0263964
229.5985 0.0263989
230.6262 0.0263997
231.6539 0.0264011
232.68 0.0264017
233.7115 0.0264019
234.7386 0.0264037
235.7654 0.0264037
236.7849 0.0264041
238.215 0.0264041
239.2415 0.0264041
240.2647 0.026404
241.2915 0.0264041
242.3155 0.0264041
243.3385 0.0264042
244.3618 0.0264042
245.3849 0.0264047
246.4075 0.0264048
247.4346 0.0264053
248.4564 0.026406
249.487 0.0264058
250.5116 0.0264052
251.537 0.0264052
252.5614 0.0264057
253.9946 0.0264057
255.0188 0.0264057
256.044 0.0264058
257.0677 0.0264067
258.0913 0.0264069
259.1172 0.0264069
260.1399 0.0264069
261.1634 0.026408
262.1902 0.0264095
263.2141 0.0264098
264.2382 0.0264119
265.2637 0.0264147
266.2861 0.0264147
267.312 0.0264151
268.3357 0.0264152
269.7622 0.0264146
270.7876 0.0264138
271.8123 0.0264112
272.8379 0.0264101
273.8601 0.0264065
274.8823 0.0264057
275.9076 0.0264057
276.9325 0.0264082
277.9554 0.0264087
278.9789 0.0264096
280.0062 0.0264095
281.0315 0.0264096
282.0556 0.0264096
283.0809 0.0264097
284.1037 0.0264103
285.5273 0.0264108
286.5541 0.0264108
287.5789 0.0264101
288.6055 0.0264074
289.6321 0.026406
290.6539 0.026405
291.6811 0.026405
292.7064 0.0264067
293.7291 0.0264101
294.7538 0.0264137
295.7764 0.026415
296.7996 0.0264157
297.8219 0.0264162
298.8466 0.026416
299.8723 0.0264154
301.298 0.0264137
302.3218 0.0264124
303.348 0.026411
304.3745 0.026411
305.3972 0.026411
306.4205 0.0264117
307.4444 0.0264137
308.4673 0.0264151
309.4903 0.0264159
310.5142 0.0264159
311.5379 0.0264159
312.5657 0.0264156
313.587 0.0264151
314.6112 0.0264157
315.6342 0.0264157
317.0615 0.0264157
318.088 0.0264157
319.1123 0.0264158
320.1358 0.0264156
321.1572 0.0264156
322.1827 0.0264153
323.2094 0.0264151
324.2298 0.0264153
325.2527 0.0264157
326.2745 0.0264164
327.2974 0.0264165
328.3237 0.0264165
329.3492 0.0264171
330.3713 0.0264177
331.3952 0.0264186
332.8202 0.0264189
333.8434 0.0264189
334.8662 0.0264196
335.8895 0.0264196
336.9108 0.0264195
337.9333 0.0264186
338.9559 0.0264175
339.9797 0.0264177
341.0077 0.0264182
342.0305 0.0264182
343.056 0.0264186
344.0804 0.0264189
345.1077 0.0264196
346.1355 0.0264202
347.16 0.0264208
348.5857 0.0264208
349.6075 0.0264204
349.9484 0.0264202

File: 320.txt
69.32241 0.0258595
70.35201 0.0258595
71.37915 0.0258603
72.41132 0.0258608
73.4385 0.0258628
74.46088 0.0258636
75.48881 0.0258644
76.52226 0.0258651
77.55057 0.0258655
78.57749 0.0258661
80.00713 0.0258661
81.03433 0.0258658
82.05766 0.0258658
83.08348 0.0258617
84.11383 0.0258591
85.13815 0.0258591
86.1678 0.0258591
87.19488 0.02586
88.22002 0.0258608
89.2478 0.0258613
90.27473 0.0258621
91.30711 0.0258621
92.34018 0.0258625
93.36776 0.0258619
94.39467 0.0258619
95.82558 0.0258619
96.85391 0.0258615
97.88758 0.0258602
98.95408 0.02586
99.97567 0.0258577
101.0054 0.0258574
102.0326 0.0258574
103.0576 0.0258605
104.0882 0.0258609
105.1128 0.0258612
106.1398 0.0258609
107.1677 0.0258615
108.1964 0.0258615
109.2237 0.0258613
110.2512 0.0258613
111.6814 0.0258617
112.7051 0.0258625
113.7354 0.0258632
114.7653 0.0258769
115.796 0.025911
116.8212 0.0259373
117.8463 0.0259662
118.87 0.0259827
119.8999 0.0260021
120.9255 0.0260192
121.9591 0.0260349
122.9921 0.0260535
124.0216 0.026068
125.0463 0.0260841
126.0728 0.0260975
127.5041 0.0261066
128.5336 0.0261136
129.5612 0.026122
130.5867 0.0261325
131.6121 0.0261381
132.6383 0.0261522
133.6669 0.0261594
134.6918 0.0261662
135.719 0.0261709
136.7468 0.026178
137.7754 0.0261839
138.8037 0.0261918
139.8277 0.0261927
140.858 0.0261986
141.886 0.0262076
143.3164 0.0262136
144.3405 0.0262138
145.3645 0.0262142
146.391 0.0262155
147.4191 0.0262179
148.4449 0.026223
149.4748 0.0262255
150.5021 0.0262266
151.5241 0.0262292
152.5561 0.0262347
153.5813 0.0262387
154.6081 0.026241
155.6357 0.0262439
156.6663 0.0262475
157.6965 0.026249
159.1298 0.0262492
160.1575 0.0262492
161.1842 0.0262494
162.212 0.02625
163.2377 0.0262512
164.2672 0.0262532
165.2957 0.0262539
166.3227 0.0262547
167.3455 0.0262591
168.3743 0.0262612
169.4032 0.0262621
170.4275 0.0262627
171.4547 0.0262637
172.4794 0.0262654
173.5079 0.0262663
174.9374 0.0262675
175.9659 0.0262675
176.9911 0.0262681
178.0169 0.0262701
179.042 0.0262705
180.0669 0.0262704
181.0889 0.0262705
182.1157 0.0262717
183.1457 0.026273
184.1685 0.026275
185.192 0.026277
186.2192 0.0262782
187.2472 0.0262791
188.2726 0.026281
189.3023 0.0262835
190.7335 0.0262864
191.7655 0.0262864
192.7923 0.0262864
193.8166 0.0262867
194.8428 0.0262883
195.8687 0.0262895
196.896 0.0262895
197.9248 0.02629
198.9526 0.0262916
199.9812 0.0262931
201.0081 0.0262947
202.036 0.0262976
203.0616 0.0262998
204.0918 0.0263005
205.1153 0.0263005
206.5442 0.0263005
207.5718 0.0262995
208.5964 0.026298
209.6301 0.0262957
210.6579 0.0262957
211.6838 0.0262945
212.7114 0.0262933
213.741 0.0262937
214.7713 0.0262949
215.7957 0.0262956
216.8228 0.0262956
217.8473 0.0262952
218.8748 0.0262953
219.8984 0.0262955
220.9248 0.0262959
222.3568 0.0262958
223.3853 0.0262952
224.4136 0.0262957
225.4406 0.0262961
226.4703 0.0262956
227.5009 0.0262947
228.5276 0.0262936
229.5566 0.0262932
230.5821 0.0262933
231.6091 0.0262933
232.6353 0.0262933
233.6901 0.0262941
234.7166 0.0263003
235.7442 0.0263028
236.7675 0.0263037
238.1943 0.0263042
239.2212 0.026304
240.2447 0.0263037
241.2716 0.0263024
242.2956 0.0263012
243.3201 0.0263
244.3418 0.026299
245.3702 0.0262995
246.3968 0.0263007
247.4218 0.0263018
248.4469 0.0263018
249.4695 0.0263026
250.4944 0.0263033
251.5184 0.0263038
252.5408 0.0263043
253.9658 0.0263042
254.9926 0.0263042
256.0157 0.0263042
257.0392 0.0263015
258.0626 0.0262987
259.0853 0.0262983
260.1093 0.0262983
261.1331 0.0262992
262.1581 0.0262998
263.185 0.026301
264.2111 0.0263017
265.2377 0.0263021
266.2591 0.0263025
267.2854 0.0263033
268.3105 0.0263046
269.7391 0.0263061
270.7639 0.0263061
271.7857 0.0263064
272.8098 0.0263065
273.8332 0.0263053
274.8562 0.0263053
275.8785 0.0263052
276.9037 0.0263052
277.926 0.0263054
278.9501 0.026306
279.9731 0.0263067
280.9962 0.0263072
282.0204 0.0263071
283.0447 0.0263076
284.0706 0.0263082
285.4979 0.0263082
286.5253 0.026308
287.5513 0.0263071
288.5735 0.0263055
289.6039 0.026304
290.6272 0.026304
291.6521 0.0263023
292.6742 0.0263026
293.6992 0.0263037
294.7262 0.0263043
295.751 0.0263044
296.7744 0.0263054
297.7993 0.0263069
298.8295 0.026307
299.8532 0.0263077
301.2779 0.0263078
302.3003 0.0263078
303.3251 0.0263077
304.3488 0.0263066
305.3719 0.026305
306.3938 0.026305
307.423 0.0263042
308.4506 0.0263054
309.4759 0.0263062
310.4996 0.0263083
311.5244 0.0263097
312.5479 0.0263112
313.5727 0.0263125
314.6 0.0263135
315.6239 0.0263135
317.0504 0.0263136
318.0764 0.0263131
319.1015 0.0263121
320.1276 0.0263109
321.1534 0.0263102
322.1778 0.0263097
323.2011 0.0263097
324.2301 0.0263102
325.2541 0.0263113
326.28 0.0263115
327.3047 0.026312
328.3304 0.0263123
329.3541 0.0263125
330.3787 0.0263129
331.4021 0.0263134
332.8296 0.0263138
333.8532 0.0263138
334.8791 0.0263138
335.902 0.0263131
336.9248 0.0263122
337.9456 0.0263109
338.9688 0.0263109
339.9956 0.026311
341.0163 0.0263127
342.044 0.0263128
343.1063 0.0263131
344.1319 0.0263139
345.1588 0.0263151
346.1868 0.026317
347.2077 0.0263176
348.6352 0.0263178
349.6581 0.0263176
350.6806 0.0263174
351.7047 0.0263173
352.7269 0.0263164
353.7504 0.0263149
354.7732 0.0263144
355.7965 0.0263149
356.8224 0.0263164
357.846 0.0263172
358.869 0.0263174
359.8912 0.0263179
360.9153 0.0263179
362.0137 0.0263185
363.0359 0.0263183
364.4651 0.0263176
365.4874 0.026317
366.5113 0.0263166
367.532 0.0263163
368.5553 0.0263155
369.5784 0.0263152
370.6039 0.0263152
371.6287 0.026316
372.6584 0.0263169
395.1688 0.0263177

File: 340.txt
34.97314 0.0259396
35.99827 0.0259413
37.03114 0.0259423
38.05655 0.0259437
39.08801 0.0259441
40.11403 0.0259441
41.14079 0.0259441
42.16797 0.0259436
43.19735 0.0259398
44.22867 0.0259367
45.25652 0.0259358
46.28412 0.0259344
47.31115 0.0259337
48.74088 0.0259326
49.76828 0.0259309
50.79469 0.0259283
51.81956 0.0259206
52.84892 0.0259203
53.88048 0.0259202
54.90617 0.0259201
55.93325 0.0259201
56.96176 0.0259197
57.99014 0.025919
59.02132 0.0259174
60.0446 0.0259146
61.07186 0.0259117
62.09636 0.0259106
63.12573 0.0259106
64.55477 0.0259106
65.58435 0.0259094
66.60864 0.0259089
67.63651 0.0259044
68.66473 0.025904
69.69528 0.0259025
70.7231 0.0259025
71.74775 0.0259028
72.77689 0.0259021
73.80402 0.025902
74.82972 0.0259019
75.85307 0.0259017
76.88717 0.0259015
77.91326 0.0259008
78.93973 0.0259008
80.37003 0.0259008
81.40979 0.0259004
82.43764 0.0259005
83.4649 0.0259013
84.49044 0.0259046
85.51902 0.025908
86.54641 0.0259092
87.57329 0.025913
88.6042 0.0259141
89.62858 0.0259168
90.65654 0.0259198
91.6826 0.0259216
92.70811 0.0259241
93.73891 0.0259303
94.76629 0.0259337
96.19725 0.0259343
97.22828 0.0259347
98.26059 0.025937
99.29002 0.0259395
100.3136 0.0259416
101.338 0.025946
102.3656 0.0259492
103.3955 0.0259508
104.4267 0.0259525
105.4515 0.0259559
106.4769 0.0259592
107.5085 0.0259626
108.5357 0.0259652
109.5639 0.0259673
110.5913 0.0259693
112.0235 0.0259707
113.0483 0.0259713
114.0742 0.025972
115.1003 0.0259734
116.1256 0.025974
117.1803 0.0259757
118.2088 0.0259779
119.2332 0.0259795
120.2575 0.025986
121.2891 0.0259866
122.3143 0.025989
123.3362 0.0259918
124.3601 0.025994
125.382 0.0259959
126.4055 0.0259983
127.8347 0.025999
128.8616 0.025999
129.8828 0.0259987
130.9048 0.0259987
131.9299 0.0259987
132.9517 0.0259999
133.9753 0.0260003
135.0005 0.026002
136.03 0.0260029
137.054 0.0260032
138.0781 0.0260069
139.103 0.0260102
140.1287 0.0260124
141.1538 0.0260135
142.1764 0.026014
143.6066 0.0260142
144.6336 0.0260142
145.6571 0.026014
146.6822 0.0260149
147.7121 0.0260145
148.7412 0.0260153
149.7637 0.026018
150.7934 0.02602
151.817 0.0260216
152.8402 0.0260244
153.8656 0.0260258
154.8897 0.0260258
155.9156 0.0260266
156.9407 0.0260275
157.966 0.0260287
159.3968 0.0260289
160.4238 0.0260265
161.4522 0.0260266
162.4775 0.0260282
163.502 0.0260285
164.5247 0.0260288
165.5533 0.0260288
166.5795 0.0260309
167.6023 0.0260313
168.6279 0.0260318
169.6503 0.0260325
170.6761 0.0260329
171.6993 0.0260333
172.7219 0.0260335
173.7442 0.0260341
175.1581 0.0260345
176.1811 0.0260339
177.2056 0.0260331
178.2331 0.0260338
179.2582 0.0260347
180.2819 0.0260335
181.3039 0.0260335
182.3279 0.0260362
183.3538 0.0260375
184.3795 0.0260407
185.4055 0.0260424
186.4343 0.0260429
187.4577 0.0260439
188.4822 0.0260451
189.5078 0.026046
190.9361 0.0260461
191.9585 0.0260461
192.9863 0.0260458
194.0096 0.0260467
195.0343 0.026047
196.06 0.0260469
197.0834 0.0260469
198.111 0.026048
199.1398 0.026048
200.1621 0.026048
201.1868 0.0260477
202.2148 0.0260469
203.2412 0.0260466
204.2691 0.0260457
205.2932 0.0260457
206.7216 0.026045
207.7446 0.0260443
208.771 0.0260439
209.7949 0.0260439
210.8193 0.0260442
211.8424 0.0260456
212.8659 0.026046
213.8924 0.0260475
214.9169 0.0260491
215.9439 0.0260496
216.9683 0.0260503
217.9905 0.0260511
219.0139 0.026052
220.0417 0.0260525
221.0693 0.0260529
222.4983 0.026053
223.5198 0.026053
224.5466 0.026053
225.5716 0.0260514
226.595 0.0260503
227.6187 0.0260503
228.646 0.0260503
229.6703 0.0260507
230.6963 0.0260512
231.7212 0.0260519
232.7461 0.0260535
233.7691 0.0260541
234.7906 0.026054
235.8122 0.0260541
236.8368 0.0260542
238.2667 0.0260542
239.2947 0.0260542
240.3213 0.0260532
241.387 0.0260528
242.4092 0.0260532
243.4304 0.0260542
244.4562 0.0260535
245.4808 0.0260547
246.5059 0.0260548
247.5284 0.026056
248.5542 0.0260557
249.575 0.026056
250.6 0.0260562
251.6252 0.0260563
252.6484 0.0260568
254.0739 0.0260565
255.0991 0.0260563
256.124 0.0260557
257.1489 0.0260555
258.1736 0.0260559
259.1961 0.0260559
260.22 0.0260559
261.2453 0.026061
262.2708 0.0260629
263.2957 0.0260639
264.3199 0.0260644
265.3439 0.0260653
266.3679 0.0260667
267.3895 0.0260674
268.4142 0.0260674
269.84 0.0260674
270.8648 0.0260669
271.8913 0.0260653
272.9128 0.0260635
273.939 0.0260628
274.9615 0.0260628
275.9831 0.0260625
277.0061 0.0260628
278.0291 0.0260633
279.0519 0.0260633
280.075 0.026064
281.0968 0.0260645
282.1195 0.0260642
283.1422 0.0260644
284.1703 0.0260648
285.5975 0.0260647
286.6228 0.0260647
287.6473 0.0260635
288.671 0.0260633
289.6939 0.0260638
290.7135 0.0260638
291.7361 0.0260628
292.7604 0.0260638
293.784 0.0260641
294.8058 0.0260644
295.831 0.0260647
296.8579 0.0260651
297.8834 0.0260651
298.905 0.0260649
299.9284 0.0260651
301.3573 0.0260637
302.3811 0.0260632
303.4049 0.0260626
304.43 0.0260591
305.4573 0.0260591
306.48 0.0260591
307.5063 0.0260591
308.5301 0.026061
309.5539 0.0260615
310.5803 0.0260625
311.6084 0.0260629
312.6333 0.026063
313.6603 0.0260637
314.6852 0.0260644
315.7093 0.0260655
317.135 0.0260661
318.1568 0.0260661
319.1804 0.0260663
320.2066 0.0260667
321.2288 0.0260667
322.251 0.0260667
323.2752 0.0260666
324.2983 0.0260681
325.3252 0.0260681
326.3519 0.0260687
327.379 0.0260695
328.4012 0.0260703
329.4244 0.0260705
330.4478 0.0260706
331.4723 0.0260722
332.8998 0.0260722
333.9262 0.0260722
334.9517 0.0260705
335.976 0.0260677
336.9991 0.0260658
338.03 0.026064
339.0534 0.026064
340.0738 0.026064
341.1011 0.0260644
342.1242 0.0260644
343.1503 0.0260648
344.1724 0.0260669
345.1987 0.0260693
346.2212 0.0260693
347.2426 0.0260693
348.6723 0.0260691
349.6986 0.0260686
350.0417 0.0260681