Folder: GaN-AlGaN/adquisiciones/GaN uvvis/subidas (part 2)

File: 340_uv.txt
34.98861 0.0257914
36.01282 0.0257801
37.04038 0.0257797
38.06292 0.0257792
39.09127 0.0257792
40.11988 0.0257794
41.14614 0.0257792
42.17283 0.025779
43.1994 0.0257784
44.22566 0.0257762
45.25577 0.0257738
46.28299 0.025772
47.31003 0.0257712
48.74138 0.0257696
49.77006 0.0257687
50.79771 0.0257679
51.82339 0.0257605
52.8547 0.0257595
53.88259 0.0257595
54.91129 0.0257595
55.94116 0.0257601
56.96774 0.0257606
57.99636 0.0257607
59.0273 0.0257608
60.05939 0.0257608
61.08593 0.0257599
62.11008 0.0257588
63.13833 0.0257582
64.57141 0.0257577
65.60189 0.0257568
66.62792 0.0257557
67.6538 0.0257495
68.67906 0.0257485
69.7047 0.0257474
70.73501 0.0257449
71.76398 0.025745
72.78844 0.025745
73.81461 0.0257449
74.84227 0.0257451
75.87374 0.025746
76.90441 0.0257477
77.93455 0.0257486
78.9671 0.0257574
80.39538 0.0257759
81.41996 0.0257922
82.45031 0.025806
83.47469 0.0258159
84.50388 0.0258382
85.531 0.0258569
86.56437 0.0258709
87.59247 0.025887
88.6236 0.0258992
89.64793 0.0259117
90.67405 0.0259229
91.69751 0.0259329
92.72578 0.0259415
93.75114 0.02595
94.77485 0.0259575
96.21165 0.0259647
97.24217 0.0259702
98.26837 0.0259777
99.29813 0.0259806
100.3216 0.0259838
101.3497 0.0259944
102.3763 0.0259996
103.4047 0.0260088
104.4335 0.026014
105.4583 0.0260179
106.4823 0.0260238
107.5077 0.0260301
108.5381 0.0260326
109.5634 0.0260381
110.5928 0.0260426
112.0244 0.0260442
113.047 0.0260462
114.0745 0.0260505
115.1007 0.0260511
116.1279 0.0260546
117.1846 0.0260588
118.2151 0.0260618
119.2414 0.0260653
120.2664 0.0260707
121.2903 0.026073
122.3176 0.0260753
123.346 0.0260778
124.3735 0.0260798
125.3954 0.0260812
126.422 0.0260818
127.8458 0.0260818
128.87 0.0260818
129.8921 0.0260807
130.9181 0.026081
131.9438 0.026081
132.9682 0.0260813
133.9944 0.0260825
135.0181 0.0260848
136.045 0.0260872
137.0723 0.0260896
138.0965 0.026091
139.1237 0.0260922
140.1467 0.0260932
141.1762 0.0260946
142.2025 0.0260963
143.6286 0.0260966
144.6503 0.0260966
145.675 0.0260965
146.6966 0.0260965
147.7195 0.026098
148.7468 0.0260983
149.7696 0.0260983
150.79 0.0260997
151.814 0.0261019
152.8392 0.0261029
153.8646 0.0261059
154.89 0.0261074
155.918 0.0261078
156.9418 0.0261087
157.9657 0.0261091
159.3935 0.026109
160.4187 0.0261081
161.4425 0.0261076
162.4667 0.0261076
163.49 0.0261073
164.5151 0.0261073
165.5365 0.0261073
166.5648 0.0261079
167.5883 0.0261098
168.6105 0.0261112
169.636 0.0261118
170.657 0.0261118
171.682 0.026112
172.7068 0.0261123
173.73 0.0261123
175.1562 0.0261127
176.1795 0.0261117
177.2041 0.0261108
178.2256 0.026111
179.2471 0.0261108
180.2715 0.0261108
181.2969 0.0261108
182.3202 0.0261122
183.3391 0.0261135
184.3661 0.0261161
185.39 0.026117
186.4129 0.0261185
187.4384 0.0261201
188.4606 0.0261211
189.4856 0.0261213
190.9149 0.0261214
191.9377 0.0261214
192.9622 0.0261208
193.9846 0.026119
195.0099 0.0261183
196.0345 0.0261183
197.0568 0.0261183
198.0797 0.0261194
199.1054 0.0261207
200.1285 0.0261226
201.154 0.026124
202.1828 0.0261246
203.2107 0.0261249
204.236 0.0261254
205.2595 0.0261254
206.6908 0.0261253
207.7112 0.0261249
208.7344 0.0261229
209.7593 0.0261166
210.7882 0.0261166
211.8118 0.0261166
212.8409 0.0261166
213.8642 0.0261192
214.8873 0.0261196
215.9137 0.0261209
216.9365 0.0261216
217.9647 0.0261227
218.9851 0.026123
220.0112 0.0261234
221.0318 0.0261241
222.4562 0.026124
223.4809 0.0261238
224.5033 0.026123
225.5279 0.026123
226.5523 0.0261234
227.5788 0.0261239
228.6015 0.026124
229.6264 0.0261258
230.6508 0.0261277
231.6725 0.0261286
232.6957 0.0261292
233.7239 0.0261293
234.7478 0.0261292
235.7724 0.0261292
236.8 0.0261293
238.2282 0.0261293
239.2504 0.0261292
240.2745 0.026128
241.2987 0.026125
242.322 0.0261235
243.3456 0.0261235
244.3694 0.0261235
245.3936 0.0261252
246.4174 0.0261256
247.4435 0.0261259
248.4671 0.0261262
249.4885 0.0261268
250.5141 0.026129
251.5365 0.0261296
252.5621 0.026131
253.9864 0.0261313
255.0111 0.0261313
256.0358 0.0261305
257.0602 0.0261251
258.0831 0.0261247
259.1104 0.0261247
260.1354 0.0261242
261.1594 0.0261256
262.186 0.0261262
263.2125 0.0261273
264.2384 0.0261281
265.2613 0.0261304
266.2836 0.0261313
267.3046 0.0261314
268.3263 0.0261319
269.7537 0.0261312
270.7792 0.0261305
271.8033 0.0261301
272.8296 0.0261259
273.854 0.0261259
274.88 0.0261259
275.9048 0.0261259
276.9289 0.0261288
277.954 0.0261295
278.9795 0.0261297
280.0035 0.0261297
281.0315 0.0261296
282.0523 0.0261295
283.0756 0.0261296
284.0988 0.0261293
285.5261 0.0261291
286.549 0.0261283
287.5722 0.0261279
288.5988 0.026129
289.622 0.0261293
290.6439 0.0261298
291.6696 0.0261301
292.6922 0.0261307
293.7152 0.0261308
294.7426 0.0261311
295.7663 0.0261308
296.7911 0.0261308
297.8183 0.0261308
298.8411 0.0261306
299.8695 0.02613
301.2965 0.0261297
302.3187 0.0261289
303.3413 0.0261287
304.3648 0.0261246
305.3875 0.0261241
306.4126 0.0261241
307.4398 0.0261241
308.466 0.0261252
309.4864 0.0261266
310.5072 0.0261267
311.5326 0.0261275
312.5569 0.0261278
313.5792 0.0261282
314.6023 0.0261282
315.626 0.0261279
317.0517 0.0261283
318.0743 0.0261283
319.0978 0.0261269
320.1224 0.0261256
321.1471 0.0261246
322.1729 0.0261241
323.1993 0.0261241
324.2248 0.0261252
325.2495 0.0261252
326.2723 0.026126
327.3013 0.0261264
328.3259 0.0261273
329.3497 0.0261273
330.3724 0.0261282
331.4 0.0261297
332.826 0.02613
333.8487 0.0261296
334.8711 0.026129
335.8944 0.0261266
336.9177 0.0261263
337.9417 0.0261261
338.9637 0.0261259
339.9914 0.0261263
341.0192 0.026127
342.0401 0.0261274
343.0626 0.0261286
344.0839 0.0261298
345.1092 0.0261309
346.1324 0.0261314
347.1583 0.0261321
348.5864 0.0261321
349.6147 0.0261316
349.9558 0.0261313

File: 360.txt
34.928 0.0258083
35.95632 0.0258058
36.98095 0.0258044
38.00336 0.0258032
39.03247 0.0258029
40.06006 0.0258029
41.08314 0.0258029
42.11047 0.0258021
43.13406 0.0257997
44.15572 0.0257981
45.18357 0.0257961
46.20808 0.0257956
47.23691 0.025794
48.66638 0.0257932
49.68925 0.0257923
50.71503 0.0257909
51.74061 0.0257863
52.76588 0.0257853
53.7948 0.0257847
54.82016 0.0257847
55.84736 0.0257849
56.87249 0.025785
57.89931 0.0257851
58.92527 0.0257849
59.95294 0.0257846
60.98497 0.0257846
62.01003 0.0257847
63.0377 0.0257849
64.46333 0.0257849
65.48462 0.0257837
66.50812 0.0257836
67.53152 0.0257841
68.55802 0.0257828
69.58418 0.0257823
70.61071 0.0257813
71.63796 0.0257813
72.66373 0.0257813
73.6907 0.025781
74.7144 0.0257804
75.73802 0.0257795
76.76091 0.0257787
77.78977 0.025779
78.81489 0.0257793
80.24498 0.0257786
81.27223 0.0257769
82.29913 0.0257767
83.3205 0.0257739
84.34865 0.0257731
85.37464 0.0257731
86.39876 0.025773
87.42249 0.025773
88.44701 0.0257731
89.4722 0.0257733
90.50004 0.0257741
91.5236 0.0257748
92.54817 0.0257748
93.57383 0.0257759
94.59641 0.0257765
96.02425 0.0257765
97.05017 0.0257758
98.07418 0.0257745
99.09865 0.0257725
100.1234 0.0257717
101.1501 0.0257705
102.1777 0.0257703
103.2041 0.0257703
104.2333 0.0257704
105.2584 0.02577
106.2806 0.02577
107.3054 0.0257698
108.3289 0.0257696
109.352 0.025769
110.3748 0.0257693
111.8002 0.0257685
112.8294 0.025768
113.8498 0.0257661
114.8764 0.0257609
115.9025 0.0257607
116.9561 0.0257607
117.9796 0.0257607
119.0044 0.0257625
120.0286 0.0257642
121.0549 0.0257645
122.0786 0.0257647
123.107 0.0257649
124.1306 0.0257651
125.1545 0.0257669
126.179 0.0257694
127.6046 0.0257719
128.6346 0.0257858
129.6565 0.0257884
130.6771 0.0257935
131.7019 0.0257994
132.7249 0.0258105
133.7505 0.0258203
134.7754 0.0258269
135.8056 0.02583
136.8283 0.0258346
137.8521 0.025839
138.9166 0.0258451
139.9405 0.0258491
140.9638 0.0258517
141.988 0.0258571
143.4148 0.0258588
144.4365 0.0258644
145.4601 0.0258704
146.4888 0.0258723
147.5111 0.0258753
148.5359 0.0258842
149.5642 0.0258898
150.5862 0.0258933
151.6098 0.0258961
152.635 0.0259055
153.656 0.0259098
154.6797 0.0259138
155.7057 0.0259179
156.728 0.0259219
157.753 0.0259272
159.1812 0.0259285
160.2045 0.0259294
161.2297 0.0259322
162.2534 0.0259341
163.277 0.0259363
164.3016 0.0259383
165.3266 0.0259422
166.3511 0.0259436
167.3778 0.0259457
168.4019 0.0259495
169.4258 0.0259502
170.4492 0.0259512
171.4746 0.0259567
172.4977 0.0259636
173.5201 0.0259654
174.9495 0.0259662
175.9782 0.0259684
177.0059 0.025969
178.0333 0.0259726
179.0586 0.0259735
180.084 0.0259741
181.1073 0.0259764
182.1332 0.0259777
183.1583 0.0259845
184.1862 0.0259902
185.2102 0.0259917
186.242 0.0259926
187.2697 0.0259939
188.2937 0.025994
189.3152 0.025994
190.743 0.025994
191.7663 0.0259937
192.7916 0.0259933
193.8183 0.0259933
194.8424 0.0259937
195.8642 0.025994
196.8879 0.0259967
197.9112 0.0259983
198.9364 0.0259989
199.961 0.0260014
200.9852 0.0260048
202.011 0.0260058
203.0417 0.0260066
204.0671 0.0260075
205.098 0.0260087
206.5241 0.0260087
207.5493 0.026009
208.5751 0.0260094
209.6013 0.0260113
210.6318 0.0260137
211.6598 0.0260153
212.6829 0.0260156
213.7103 0.0260173
214.7405 0.0260184
215.7624 0.0260203
216.7892 0.0260272
217.8178 0.0260282
218.8457 0.0260295
219.8706 0.0260311
220.8944 0.0260331
222.3197 0.0260334
223.3472 0.0260334
224.3697 0.0260334
225.3922 0.0260313
226.4169 0.0260309
227.444 0.0260309
228.4649 0.0260309
229.4907 0.0260322
230.5188 0.0260356
231.5396 0.0260365
232.5632 0.0260367
233.5884 0.0260371
234.6106 0.0260366
235.6328 0.0260368
236.6638 0.0260373
238.0942 0.026037
239.1158 0.0260361
240.1426 0.0260353
241.1666 0.0260359
242.1875 0.0260366
243.2121 0.0260385
244.2379 0.0260385
245.26 0.0260416
246.285 0.0260422
247.313 0.0260432
248.3325 0.0260435
249.3569 0.0260439
250.3853 0.0260449
251.4103 0.0260465
252.4359 0.0260467
253.863 0.0260465
254.8858 0.0260456
255.9124 0.0260455
256.9371 0.0260451
257.9621 0.0260435
258.9855 0.0260435
260.0085 0.0260435
261.0366 0.0260443
262.0612 0.0260454
263.0831 0.026046
264.1056 0.0260468
265.1293 0.0260475
266.1547 0.0260483
267.1782 0.026048
268.199 0.0260488
269.6258 0.0260478
270.649 0.0260461
271.6739 0.0260478
272.6978 0.0260478
273.7225 0.0260487
274.745 0.0260492
275.768 0.02605
276.7937 0.0260514
277.8188 0.0260517
278.843 0.0260527
279.8653 0.0260533
280.8897 0.0260537
281.9134 0.0260555
282.943 0.0260569
283.9648 0.0260579
285.3925 0.0260579
286.4138 0.0260579
287.4397 0.0260573
288.4629 0.0260524
289.4881 0.0260524
290.5103 0.0260524
291.535 0.0260524
292.5599 0.0260551
293.5857 0.0260554
294.6079 0.0260564
295.6314 0.0260572
296.6528 0.0260573
297.6769 0.0260578
298.6995 0.0260578
299.7285 0.026058
301.1546 0.0260583
302.1796 0.026058
303.2033 0.0260576
304.2268 0.0260526
305.2521 0.0260526
306.2773 0.0260526
307.3069 0.0260526
308.3294 0.0260551
309.3529 0.0260573
310.3761 0.0260588
311.4003 0.0260598
312.4241 0.0260614
313.4474 0.0260616
314.4728 0.0260622
315.4956 0.0260628
316.9218 0.0260628
317.9471 0.0260626
318.9736 0.0260628
319.998 0.0260628
321.0225 0.0260623
322.0461 0.0260604
323.0681 0.0260593
324.0902 0.0260608
325.1125 0.0260613
326.1372 0.0260611
327.1598 0.0260611
328.183 0.0260607
329.2058 0.026061
330.2299 0.0260609
331.2501 0.0260607
332.675 0.0260598
333.6992 0.0260586
334.7223 0.0260582
335.7477 0.0260579
336.773 0.0260574
337.8 0.0260572
338.8241 0.0260573
339.8463 0.0260581
340.8695 0.026059
341.8943 0.0260598
342.9179 0.0260619
343.9439 0.0260632
344.9694 0.0260638
345.9896 0.0260643
347.0156 0.0260637
348.4438 0.0260631
349.4674 0.0260627
349.8072 0.0260623